,index,timestamp,ACCEL_X,ACCEL_Y,ACCEL_Z,Time_since_start_y,GYRO_X,GYRO_Y,GYRO_Z
0,0,2016-01-09 16:37:03.54,0.057,-0.925,-0.243,,,,
1,1,2016-01-09 16:37:03.58,0.059,-0.94,-0.237,34150221913.0,0.915,0.183,0.61
2,2,2016-01-09 16:37:03.62,0.063,-0.946,-0.233,34155697382.0,0.976,0.732,1.098
3,3,2016-01-09 16:37:03.66,0.058,-0.946,-0.231,34200167644.0,1.524,1.28,2.378
4,4,2016-01-09 16:37:03.70,0.062,-0.943,-0.23,34203679050.0,0.671,0.427,4.146
5,5,2016-01-09 16:37:03.74,0.052,-0.943,-0.231,34250128685.0,0.671,-0.244,5.671
6,6,2016-01-09 16:37:03.78,0.053,-0.933,-0.238,34351745925.0,1.829,0.061,6.829
7,7,2016-01-09 16:37:03.81,0.054,-0.935,-0.229,,,,
8,8,2016-01-09 16:37:03.86,0.046,-0.94,-0.225,34401807591.0,4.207,0.671,6.402
9,9,2016-01-09 16:37:03.90,0.028,-0.945,-0.216,34404617175.0,5.061,0.976,6.098
10,10,2016-01-09 16:37:03.94,0.016,-0.949,-0.198,34451866289.0,5.732,1.098,5.793
11,11,2016-01-09 16:37:03.97,0.007,-0.947,-0.193,34456285509.0,5.976,0.61,6.037
12,12,2016-01-09 16:37:04.01,0.002,-0.952,-0.192,34501025144.0,6.463,0.549,5.549
13,13,2016-01-09 16:37:04.05,0.002,-0.958,-0.183,,,,
14,14,2016-01-09 16:37:04.09,-0.004,-0.954,-0.177,34599960040.0,6.524,-0.976,3.78
15,15,2016-01-09 16:37:04.13,-0.011,-0.948,-0.163,34601951862.0,7.134,-0.366,2.439
16,16,2016-01-09 16:37:04.17,-0.013,-0.947,-0.164,34649912852.0,6.89,-0.427,1.098
17,17,2016-01-09 16:37:04.21,-0.014,-0.962,-0.157,34700148060.0,6.341,-0.915,-0.244
18,18,2016-01-09 16:37:04.25,-0.005,-0.968,-0.151,34702528946.0,5.671,-1.89,-1.585
19,19,2016-01-09 16:37:04.29,-0.003,-0.957,-0.154,34750089050.0,4.146,-2.683,-1.89
20,20,2016-01-09 16:37:04.33,-0.005,-0.96,-0.142,34754067071.0,3.78,-3.476,-2.622
21,21,2016-01-09 16:37:04.37,-0.0,-0.96,-0.142,34799929987.0,6.28,-2.683,-3.049
22,22,2016-01-09 16:37:04.41,0.006,-0.957,-0.148,34801420821.0,4.024,-3.537,-3.537
23,23,2016-01-09 16:37:04.45,0.013,-0.96,-0.146,34850598217.0,2.317,-3.293,-3.902
24,24,2016-01-09 16:37:04.49,0.02,-0.954,-0.147,34900649310.0,1.951,-2.805,-4.146
25,25,2016-01-09 16:37:04.53,0.013,-0.96,-0.146,34904998686.0,2.195,-2.317,-4.268
26,26,2016-01-09 16:37:04.57,0.016,-0.958,-0.151,34951870768.0,0.549,-2.195,-4.451
27,27,2016-01-09 16:37:04.61,0.021,-0.955,-0.151,34955592852.0,-0.915,-2.256,-4.268
28,28,2016-01-09 16:37:04.65,0.025,-0.955,-0.15,35002454675.0,-1.159,-1.524,-4.146
29,29,2016-01-09 16:37:04.69,0.025,-0.955,-0.154,35006384988.0,-1.524,-1.524,-3.659
30,30,2016-01-09 16:37:04.73,0.03,-0.958,-0.16,35050495873.0,-1.89,-0.854,-3.232
31,31,2016-01-09 16:37:04.77,0.032,-0.956,-0.159,35060371394.0,-2.195,-0.793,-2.744
32,32,2016-01-09 16:37:04.81,0.032,-0.952,-0.163,35100122071.0,-2.378,-0.671,-2.439
33,33,2016-01-09 16:37:04.89,0.034,-0.953,-0.16,35103239415.0,-2.561,-0.122,-2.012
34,34,2016-01-09 16:37:04.93,0.035,-0.95,-0.166,35150094675.0,-2.561,-0.122,-1.89
35,35,2016-01-09 16:37:04.97,0.033,-0.954,-0.165,35154407644.0,-2.378,-0.061,-1.768
36,36,2016-01-09 16:37:05.01,0.034,-0.953,-0.17,35200294571.0,-2.622,-0.122,-1.22
37,37,2016-01-09 16:37:05.05,0.029,-0.954,-0.167,35202660873.0,-2.317,-0.183,-1.463
38,38,2016-01-09 16:37:05.09,0.03,-0.956,-0.171,35302752280.0,-2.073,0.0,-1.341
39,39,2016-01-09 16:37:05.13,0.037,-0.957,-0.164,35306162956.0,-2.622,0.976,-1.037
40,40,2016-01-09 16:37:05.17,0.033,-0.957,-0.17,35452647071.0,-2.683,-0.488,-1.098
41,41,2016-01-09 16:37:05.21,0.034,-0.949,-0.167,35500008060.0,-2.805,-0.305,-1.037
42,42,2016-01-09 16:37:05.25,0.033,-0.952,-0.165,35502795613.0,-2.256,-0.671,-1.159
43,43,2016-01-09 16:37:05.29,0.032,-0.955,-0.166,35550015248.0,0.61,0.366,-1.22
44,44,2016-01-09 16:37:05.33,0.034,-0.952,-0.168,35553436707.0,-0.732,-0.366,-1.159
45,45,2016-01-09 16:37:05.37,0.033,-0.953,-0.165,35600053164.0,-1.159,-0.122,-1.098
46,46,2016-01-09 16:37:05.41,0.036,-0.955,-0.168,35603663582.0,-0.122,0.305,-1.22
47,47,2016-01-09 16:37:05.45,0.037,-0.958,-0.161,35650082175.0,0.61,-0.061,-1.22
48,48,2016-01-09 16:37:05.49,0.037,-0.953,-0.157,35654062123.0,-0.549,0.122,-1.28
49,49,2016-01-09 16:37:05.53,0.036,-0.949,-0.166,35700613841.0,-0.854,0.244,-1.524
50,50,2016-01-09 16:37:05.56,0.035,-0.96,-0.161,35704333217.0,-0.488,1.098,-1.707
51,51,2016-01-09 16:37:05.60,0.042,-0.953,-0.159,35750544310.0,-0.793,0.854,-1.159
52,52,2016-01-09 16:37:05.64,0.04,-0.948,-0.162,,,,
53,53,2016-01-09 16:37:05.69,0.042,-0.954,-0.16,35800177175.0,0.122,0.61,-1.951
54,54,2016-01-09 16:37:05.72,0.043,-0.952,-0.164,35802720925.0,-0.732,0.366,-1.829
55,55,2016-01-09 16:37:05.76,0.042,-0.953,-0.161,35850188685.0,-0.488,0.305,-1.585
56,56,2016-01-09 16:37:05.80,0.043,-0.952,-0.16,35852827957.0,-0.793,0.366,-1.159
57,57,2016-01-09 16:37:05.84,0.044,-0.955,-0.163,35900196862.0,-0.976,0.305,-0.915
58,58,2016-01-09 16:37:05.88,0.045,-0.955,-0.162,35903301811.0,-1.037,0.549,-1.098
59,59,2016-01-09 16:37:05.92,0.043,-0.952,-0.166,35950159571.0,-1.463,0.427,-1.098
60,60,2016-01-09 16:37:05.96,0.043,-0.953,-0.167,35952831134.0,-1.341,1.159,-0.915
61,61,2016-01-09 16:37:06.00,0.043,-0.946,-0.17,36000522123.0,-1.341,0.976,-0.793
62,62,2016-01-09 16:37:06.00,0.043,-0.946,-0.17,36752137486.0,-1.28,0.305,-0.427
63,63,2016-01-09 16:37:06.00,0.044,-0.947,-0.174,36000522123.0,-1.341,0.976,-0.793
64,64,2016-01-09 16:37:06.00,0.044,-0.947,-0.174,36752137486.0,-1.28,0.305,-0.427
65,65,2016-01-09 16:37:06.04,0.041,-0.949,-0.17,36003041238.0,-1.28,1.037,-0.732
66,66,2016-01-09 16:37:06.08,0.048,-0.957,-0.167,36050391966.0,-1.646,1.22,-0.915
67,67,2016-01-09 16:37:06.12,0.045,-0.955,-0.173,36053338529.0,-3.171,-0.671,-1.341
68,68,2016-01-09 16:37:06.16,0.04,-0.949,-0.171,36100480300.0,-3.72,0.183,-1.098
69,69,2016-01-09 16:37:06.20,0.045,-0.95,-0.165,36103516967.0,-2.256,-0.244,-1.037
70,70,2016-01-09 16:37:06.24,0.043,-0.951,-0.168,36200514623.0,0.793,0.671,-1.037
71,71,2016-01-09 16:37:06.28,0.043,-0.95,-0.172,36205216238.0,-1.524,0.061,-0.854
72,72,2016-01-09 16:37:06.32,0.045,-0.95,-0.173,36349906445.0,-2.195,0.122,-0.671
73,73,2016-01-09 16:37:06.36,0.048,-0.949,-0.169,36353351446.0,-1.159,0.671,-0.915
74,74,2016-01-09 16:37:06.40,0.043,-0.95,-0.169,36399964831.0,0.0,1.707,-0.671
75,75,2016-01-09 16:37:06.44,0.043,-0.949,-0.172,36404067279.0,-0.305,1.829,-0.488
76,76,2016-01-09 16:37:06.48,0.049,-0.949,-0.17,36450395248.0,-1.402,0.427,-0.549
77,77,2016-01-09 16:37:06.52,0.047,-0.949,-0.171,36452946082.0,-2.073,0.366,-0.61
78,78,2016-01-09 16:37:06.56,0.045,-0.95,-0.172,36500223164.0,-2.073,0.61,-0.671
79,79,2016-01-09 16:37:06.64,0.046,-0.955,-0.176,36504051134.0,-1.646,0.671,-0.732
80,80,2016-01-09 16:37:06.68,0.048,-0.953,-0.167,36550107383.0,-1.463,0.061,-0.549
81,81,2016-01-09 16:37:06.72,0.047,-0.949,-0.17,36554746133.0,-1.098,0.061,-0.427
82,82,2016-01-09 16:37:06.76,0.043,-0.952,-0.171,36600096133.0,-0.915,0.488,-0.732
83,83,2016-01-09 16:37:06.80,0.048,-0.951,-0.171,36604912696.0,-1.28,0.549,-0.488
84,84,2016-01-09 16:37:06.84,0.046,-0.95,-0.171,36650938841.0,-1.341,0.061,-0.549
85,85,2016-01-09 16:37:06.88,0.045,-0.953,-0.171,36655890769.0,-0.976,0.122,-0.732
86,86,2016-01-09 16:37:06.92,0.05,-0.95,-0.176,36702713009.0,-1.159,0.0,-0.488
87,87,2016-01-09 16:37:06.96,0.048,-0.948,-0.176,36707339102.0,-1.28,-0.244,-0.488
88,88,2016-01-09 16:37:07.04,0.045,-0.954,-0.165,36754867695.0,-1.585,0.427,-0.793
89,89,2016-01-09 16:37:07.08,0.045,-0.957,-0.175,36801551549.0,-1.951,-0.305,-1.159
90,90,2016-01-09 16:37:07.12,0.048,-0.954,-0.175,36805814831.0,-2.744,0.305,-0.427
91,91,2016-01-09 16:37:07.16,0.047,-0.949,-0.173,36853321914.0,-3.171,-0.793,-0.61
92,92,2016-01-09 16:37:07.20,0.049,-0.948,-0.175,36859105247.0,0.854,1.22,-0.854
93,93,2016-01-09 16:37:07.24,0.047,-0.946,-0.178,36904239622.0,-0.61,0.427,-1.159
94,94,2016-01-09 16:37:07.28,0.044,-0.947,-0.179,36906894778.0,-1.463,-0.488,-1.098
95,95,2016-01-09 16:37:07.32,0.053,-0.948,-0.172,36953054622.0,-0.61,0.183,-1.098
96,96,2016-01-09 16:37:07.35,0.044,-0.955,-0.177,36955851497.0,-0.183,-0.061,-1.159
97,97,2016-01-09 16:37:07.40,0.046,-0.953,-0.175,37003893945.0,-0.549,-0.061,-0.793
98,98,2016-01-09 16:37:07.43,0.047,-0.95,-0.173,,,,
99,99,2016-01-09 16:37:07.47,0.046,-0.953,-0.174,37055901914.0,-1.037,-0.488,-0.976
100,100,2016-01-09 16:37:07.52,0.059,-0.961,-0.169,37062001340.0,-1.037,-0.122,-0.366
101,101,2016-01-09 16:37:07.55,0.063,-0.978,-0.143,37108076393.0,-1.037,-0.549,0.732
102,102,2016-01-09 16:37:07.59,0.049,-0.962,-0.211,37158297070.0,-0.305,-0.549,3.963
103,103,2016-01-09 16:37:07.63,0.041,-0.933,-0.218,37254040612.0,0.671,-0.915,8.232
104,104,2016-01-09 16:37:07.67,0.03,-0.954,-0.174,37258089101.0,3.232,-2.073,12.744
105,105,2016-01-09 16:37:07.71,0.046,-0.954,-0.197,37299876861.0,5.488,-1.098,14.451
106,106,2016-01-09 16:37:07.75,0.064,-0.947,-0.177,37301740195.0,6.829,0.793,11.22
107,107,2016-01-09 16:37:07.79,0.059,-0.954,-0.122,37349800820.0,8.598,4.512,9.085
108,108,2016-01-09 16:37:07.83,0.022,-0.935,-0.127,37351183007.0,10.061,3.78,7.073
109,109,2016-01-09 16:37:07.87,-0.007,-0.933,-0.128,37399883892.0,8.659,0.976,4.024
110,110,2016-01-09 16:37:07.91,-0.033,-0.941,-0.16,37401297954.0,7.256,0.488,4.39
111,111,2016-01-09 16:37:07.95,-0.017,-0.958,-0.113,37449898580.0,7.256,1.951,11.341
112,112,2016-01-09 16:37:07.99,-0.0,-0.958,-0.072,37451362642.0,6.402,2.805,12.5
113,113,2016-01-09 16:37:08.03,-0.109,-0.904,-0.146,37500531184.0,4.024,6.585,-11.341
114,114,2016-01-09 16:37:08.07,-0.105,-0.94,-0.109,37507063944.0,-0.61,25.793,-18.171
115,115,2016-01-09 16:37:08.11,-0.031,-0.923,-0.083,37550454777.0,-0.122,45.915,-15.427
116,116,2016-01-09 16:37:08.15,0.038,-0.95,-0.064,37554601757.0,-0.122,6.402,-23.476
117,117,2016-01-09 16:37:08.19,-0.007,-0.977,-0.116,37601571340.0,-7.195,-12.5,-30.427
118,118,2016-01-09 16:37:08.23,-0.11,-0.95,-0.21,37604434413.0,-27.439,-14.39,-25.793
119,119,2016-01-09 16:37:08.27,-0.074,-0.908,-0.279,37651070507.0,-41.829,-18.232,-16.951
120,120,2016-01-09 16:37:08.31,0.008,-1.006,-0.189,37653455299.0,-43.171,-24.207,-14.451
121,121,2016-01-09 16:37:08.39,0.094,-0.934,-0.195,37701012642.0,-35.244,-23.902,-19.207
122,122,2016-01-09 16:37:08.43,0.101,-0.97,-0.278,37703463320.0,-32.988,-23.11,-24.939
123,123,2016-01-09 16:37:08.47,0.122,-1.026,-0.297,37751120454.0,-34.207,-25.61,-31.707
124,124,2016-01-09 16:37:08.51,0.124,-0.972,-0.345,37753688528.0,-32.439,-12.561,-32.134
125,125,2016-01-09 16:37:08.55,0.15,-0.9,-0.4,37801827121.0,-27.866,-7.622,-36.159
126,126,2016-01-09 16:37:08.59,0.152,-0.902,-0.448,37850761444.0,-29.085,-19.451,-43.049
127,127,2016-01-09 16:37:08.63,0.212,-0.88,-0.549,37856921027.0,-43.659,-40.732,-33.476
128,128,2016-01-09 16:37:08.67,0.203,-0.774,-0.648,37908905141.0,-50.793,-53.171,-31.646
129,129,2016-01-09 16:37:08.71,0.188,-0.769,-0.624,37930210141.0,-52.073,-56.524,-49.451
130,130,2016-01-09 16:37:08.75,0.26,-0.8,-0.701,37956113423.0,-51.463,-46.646,-60.61
131,131,2016-01-09 16:37:08.79,0.18,-0.739,-0.744,37959085923.0,-47.256,-50.915,-72.622
132,132,2016-01-09 16:37:08.83,0.247,-0.716,-0.693,37999708475.0,-27.439,-50.061,-85.732
133,133,2016-01-09 16:37:08.87,0.295,-0.667,-0.596,38003868319.0,-1.28,-28.598,-89.329
134,134,2016-01-09 16:37:08.91,0.401,-0.585,-0.579,38049733214.0,9.817,-29.634,-85.732
135,135,2016-01-09 16:37:08.95,0.33,-0.524,-0.479,38199680820.0,16.341,-29.512,-80.732
136,136,2016-01-09 16:37:08.99,0.31,-0.449,-0.479,38211237174.0,25.854,-33.902,-71.829
137,137,2016-01-09 16:37:09.03,0.24,-0.411,-0.463,38251954413.0,38.293,-32.561,-54.207
138,138,2016-01-09 16:37:09.07,0.271,-0.349,-0.382,38277853944.0,38.598,-38.72,-24.207
139,139,2016-01-09 16:37:09.11,0.197,-0.35,-0.404,38310051965.0,33.171,-33.476,5.427
140,140,2016-01-09 16:37:09.14,0.29,-0.406,-0.513,38328706757.0,30.488,-35.061,23.963
141,141,2016-01-09 16:37:09.18,0.407,-0.617,-0.589,38356306132.0,24.146,-40.183,32.439
142,142,2016-01-09 16:37:09.22,0.397,-0.924,-0.703,38359553267.0,12.439,-57.927,38.171
143,143,2016-01-09 16:37:09.26,0.376,-1.312,-0.712,,,,
144,144,2016-01-09 16:37:09.30,0.454,-1.592,-0.541,38404104412.0,51.646,-4.939,28.171
145,145,2016-01-09 16:37:09.34,0.373,-1.376,-0.363,38449708424.0,68.902,13.354,33.232
146,146,2016-01-09 16:37:09.38,0.219,-0.88,-0.288,38454177851.0,86.098,23.293,41.646
147,147,2016-01-09 16:37:09.42,0.004,-0.617,-0.156,38499697588.0,58.476,24.695,50.854
148,148,2016-01-09 16:37:09.46,-0.068,-0.531,-0.2,38504099412.0,14.695,20.732,52.805
149,149,2016-01-09 16:37:09.50,0.034,-0.646,-0.186,38549698006.0,-13.537,36.829,53.476
150,150,2016-01-09 16:37:09.54,-0.029,-0.919,-0.184,38559376912.0,-11.159,47.927,38.476
151,151,2016-01-09 16:37:09.58,-0.001,-0.975,-0.201,38601268006.0,-1.28,31.22,30.305
152,152,2016-01-09 16:37:09.62,0.161,-0.985,-0.223,38619530871.0,33.659,50.366,46.28
153,153,2016-01-09 16:37:09.66,0.023,-1.123,-0.19,38657773007.0,67.683,47.561,48.476
154,154,2016-01-09 16:37:09.70,0.019,-1.126,-0.112,38670038110.0,65.122,30.122,45.122
155,155,2016-01-09 16:37:09.74,0.006,-1.011,-0.128,38701972798.0,63.78,45.549,53.232
156,156,2016-01-09 16:37:09.78,-0.047,-0.925,-0.091,38719929360.0,51.524,35.732,55.976
157,157,2016-01-09 16:37:09.82,-0.044,-0.833,-0.016,38762186808.0,31.28,23.476,47.866
158,158,2016-01-09 16:37:09.86,-0.013,-0.828,-0.026,38765036704.0,1.341,15.549,37.5
159,159,2016-01-09 16:37:09.90,0.03,-0.906,-0.026,38799705089.0,-10.915,3.659,28.476
160,160,2016-01-09 16:37:09.94,-0.034,-0.968,-0.089,38804354204.0,-13.72,-10.183,16.22
161,161,2016-01-09 16:37:09.98,0.008,-0.991,-0.076,38849795454.0,0.427,-18.598,13.841
162,162,2016-01-09 16:37:10.02,0.019,-0.973,-0.096,38855415193.0,23.232,-17.073,18.293
163,163,2016-01-09 16:37:10.06,-0.052,-0.927,-0.101,38899778213.0,37.256,-17.439,28.963
164,164,2016-01-09 16:37:10.14,-0.217,-0.945,-0.091,38904153630.0,54.268,-9.634,48.963
165,165,2016-01-09 16:37:10.18,-0.29,-1.027,0.018,38949695403.0,36.22,5.061,42.622
166,166,2016-01-09 16:37:10.22,-0.293,-0.907,-0.136,38957636861.0,10.366,14.451,43.232
167,167,2016-01-09 16:37:10.26,-0.449,-0.871,-0.045,39068656913.0,-0.61,45.366,50.671
168,168,2016-01-09 16:37:10.30,-0.551,-0.849,0.029,39110276548.0,15.976,53.415,62.866
169,169,2016-01-09 16:37:10.34,-0.622,-0.719,-0.007,39205477537.0,9.329,62.317,69.634
170,170,2016-01-09 16:37:10.38,-0.445,-0.791,0.051,39208369724.0,11.22,47.195,80.915
171,171,2016-01-09 16:37:10.42,-0.492,-0.815,0.019,39210989099.0,13.415,30.793,92.195
172,172,2016-01-09 16:37:10.46,-0.828,-0.957,0.133,39213638266.0,-3.598,-4.207,78.963
173,173,2016-01-09 16:37:10.50,-0.939,-0.967,0.243,39216268422.0,15.854,-2.256,39.878
174,174,2016-01-09 16:37:10.54,-0.439,-0.78,0.164,39300269099.0,19.512,-10.671,13.841
175,175,2016-01-09 16:37:10.58,-0.505,-0.721,0.23,39304268527.0,44.39,-50.488,21.89
176,176,2016-01-09 16:37:10.62,-0.523,-0.687,0.181,39352265194.0,59.024,-74.268,42.927
177,177,2016-01-09 16:37:10.66,-0.716,-0.748,0.212,39357996496.0,31.707,-48.293,31.22
178,178,2016-01-09 16:37:10.70,-0.74,-0.693,0.374,39402070036.0,33.354,-57.683,15.854
179,179,2016-01-09 16:37:10.74,-0.822,-0.696,0.38,39415857381.0,29.878,-46.22,21.646
180,180,2016-01-09 16:37:10.78,-0.796,-0.745,0.4,39464704152.0,32.378,-45.915,7.561
181,181,2016-01-09 16:37:10.81,-0.753,-0.703,0.375,,,,
182,182,2016-01-09 16:37:10.86,-0.693,-0.661,0.488,39514949309.0,33.72,-9.695,9.268
183,183,2016-01-09 16:37:10.90,-0.747,-0.657,0.518,39526424413.0,40.854,-2.866,10.61
184,184,2016-01-09 16:37:10.94,-0.717,-0.664,0.47,39564337902.0,35.915,4.878,13.11
185,185,2016-01-09 16:37:10.97,-0.679,-0.645,0.47,39575938839.0,24.878,15.976,12.317
186,186,2016-01-09 16:37:11.01,-0.733,-0.671,0.534,39614193111.0,25.427,16.037,6.463
187,187,2016-01-09 16:37:11.05,-0.852,-0.555,0.491,39625665871.0,23.476,27.927,-1.524
188,188,2016-01-09 16:37:11.09,-0.685,-0.412,0.429,,,,
189,189,2016-01-09 16:37:11.13,-0.619,-0.58,0.458,39676106756.0,20.488,26.037,30.122
190,190,2016-01-09 16:37:11.17,-0.625,-0.676,0.434,39714496705.0,15.854,0.183,43.902
191,191,2016-01-09 16:37:11.21,-0.668,-0.613,0.372,39725583267.0,-10.549,-21.463,41.341
192,192,2016-01-09 16:37:11.25,-0.589,-0.664,0.435,39764288944.0,-21.037,-47.561,33.598
193,193,2016-01-09 16:37:11.29,-0.707,-0.753,0.494,39775537850.0,-9.878,-43.11,22.683
194,194,2016-01-09 16:37:11.33,-0.776,-0.682,0.522,39814348422.0,-6.098,-51.098,4.573
195,195,2016-01-09 16:37:11.37,-0.878,-0.538,0.566,39825610036.0,0.793,-18.11,-16.829
196,196,2016-01-09 16:37:11.41,-0.885,-0.424,0.306,39919253110.0,24.817,19.878,-11.402
197,197,2016-01-09 16:37:11.45,-0.848,-0.514,0.275,39935756913.0,29.939,35.976,-12.134
198,198,2016-01-09 16:37:11.49,-0.71,-0.491,0.326,40052989517.0,23.232,26.829,-15.305
199,199,2016-01-09 16:37:11.53,-0.812,-0.359,0.397,40075579934.0,35.732,11.159,-2.744
200,200,2016-01-09 16:37:11.57,-0.867,-0.496,0.498,40108813579.0,39.39,-1.402,0.854
201,201,2016-01-09 16:37:11.61,-0.914,-0.689,0.567,40125408892.0,26.951,-17.805,-6.524
202,202,2016-01-09 16:37:11.65,-0.714,-0.646,0.592,40153035767.0,14.024,-33.537,-4.695
203,203,2016-01-09 16:37:11.69,-0.623,-0.565,0.648,40175613319.0,19.207,-25.976,4.085
204,204,2016-01-09 16:37:11.73,-0.604,-0.383,0.577,40199721287.0,29.085,-14.451,12.134
205,205,2016-01-09 16:37:11.77,-0.611,-0.599,0.698,40252641496.0,5.61,-15.793,10.061
206,206,2016-01-09 16:37:11.81,-0.755,-0.372,0.644,40255213684.0,-3.293,-23.963,5.915
207,207,2016-01-09 16:37:11.89,-0.648,-0.561,0.627,40302529986.0,-30.549,-57.622,-18.963
208,208,2016-01-09 16:37:11.93,-0.658,-0.56,0.686,40305057277.0,-11.159,-58.841,-12.378
209,209,2016-01-09 16:37:11.97,-0.606,-0.56,0.739,40409627069.0,1.89,-82.622,-6.402
210,210,2016-01-09 16:37:12.01,-0.559,-0.764,0.808,40451998839.0,-44.512,-31.159,2.622
211,211,2016-01-09 16:37:12.05,-0.648,-0.707,0.703,40469269933.0,-42.439,-16.463,0.305
212,212,2016-01-09 16:37:12.09,-0.563,-0.609,0.587,40506277121.0,-32.927,-23.415,7.744
213,213,2016-01-09 16:37:12.13,-0.507,-0.625,0.53,40518406808.0,-20.976,-0.427,6.951
214,214,2016-01-09 16:37:12.17,-0.447,-0.585,0.55,40551807537.0,-13.841,-8.354,3.354
215,215,2016-01-09 16:37:12.21,-0.297,-0.657,0.629,40652678632.0,-8.598,-9.817,-1.768
216,216,2016-01-09 16:37:12.25,-0.464,-0.676,0.679,40655234152.0,-10.183,-2.012,-21.341
217,217,2016-01-09 16:37:12.29,-0.481,-0.665,0.693,40702689569.0,-13.11,-11.585,-21.89
218,218,2016-01-09 16:37:12.33,-0.427,-0.655,0.68,40705229621.0,-3.659,-2.073,-11.402
219,219,2016-01-09 16:37:12.37,-0.499,-0.56,0.638,40807919464.0,8.72,-24.207,-5.732
220,220,2016-01-09 16:37:12.41,-0.512,-0.534,0.643,40816071547.0,9.695,-22.012,-5.122
221,221,2016-01-09 16:37:12.45,-0.492,-0.567,0.638,40864763161.0,13.598,-14.512,-0.061
222,222,2016-01-09 16:37:12.49,-0.574,-0.637,0.671,40876103890.0,12.5,-23.902,7.805
223,223,2016-01-09 16:37:12.53,-0.598,-0.64,0.68,40913854724.0,4.817,-13.476,14.756
224,224,2016-01-09 16:37:12.57,-0.479,-0.624,0.688,40925238734.0,-1.037,-5.0,15.976
225,225,2016-01-09 16:37:12.60,-0.431,-0.562,0.68,41020089203.0,1.829,-4.634,14.329
226,226,2016-01-09 16:37:12.65,-0.502,-0.565,0.694,41035179672.0,2.073,-5.305,11.341
227,227,2016-01-09 16:37:12.69,-0.538,-0.592,0.705,41119132849.0,-0.183,-1.585,5.732
228,228,2016-01-09 16:37:12.72,-0.533,-0.583,0.712,41134392797.0,-4.146,2.866,-2.622
229,229,2016-01-09 16:37:12.77,-0.514,-0.569,0.698,41165757797.0,-8.537,-2.683,-12.439
230,230,2016-01-09 16:37:12.80,-0.47,-0.567,0.671,41249705504.0,-9.329,-15.732,-16.22
231,231,2016-01-09 16:37:12.84,-0.466,-0.638,0.696,41255873942.0,-9.756,-27.134,-10.366
232,232,2016-01-09 16:37:12.88,-0.459,-0.678,0.703,,,,
233,233,2016-01-09 16:37:12.93,-0.396,-0.696,0.72,41303960507.0,-14.085,-35.854,2.622
234,234,2016-01-09 16:37:12.96,-0.326,-0.692,0.744,41349629828.0,-12.683,-29.451,2.5
235,235,2016-01-09 16:37:13.00,-0.182,-0.616,0.817,41358862329.0,-6.768,-22.988,7.317
236,236,2016-01-09 16:37:13.00,-0.182,-0.616,0.817,41969452797.0,5.122,-5.305,-3.598
237,237,2016-01-09 16:37:13.00,-0.216,-0.597,0.802,41358862329.0,-6.768,-22.988,7.317
238,238,2016-01-09 16:37:13.00,-0.216,-0.597,0.802,41969452797.0,5.122,-5.305,-3.598
239,239,2016-01-09 16:37:13.04,-0.159,-0.56,0.818,41405966652.0,-4.268,-25.61,10.549
240,240,2016-01-09 16:37:13.08,-0.22,-0.541,0.796,41428697589.0,0.854,-19.512,1.098
241,241,2016-01-09 16:37:13.12,-0.326,-0.546,0.768,41456497745.0,3.354,-3.78,-12.622
242,242,2016-01-09 16:37:13.16,-0.452,-0.586,0.702,41459337172.0,5.305,7.256,-10.427
243,243,2016-01-09 16:37:13.20,-0.5,-0.668,0.67,41499632431.0,13.415,16.402,-0.61
244,244,2016-01-09 16:37:13.24,-0.544,-0.624,0.679,41503994254.0,13.841,28.902,7.073
245,245,2016-01-09 16:37:13.28,-0.563,-0.604,0.68,41549679880.0,11.646,39.085,2.683
246,246,2016-01-09 16:37:13.32,-0.579,-0.619,0.681,41554155037.0,13.476,50.427,-5.427
247,247,2016-01-09 16:37:13.36,-0.56,-0.591,0.636,41599607484.0,0.854,39.817,3.354
248,248,2016-01-09 16:37:13.40,-0.436,-0.549,0.584,41604111131.0,-10.0,15.488,12.195
249,249,2016-01-09 16:37:13.44,-0.455,-0.61,0.579,41649719360.0,-11.585,3.78,7.378
250,250,2016-01-09 16:37:13.48,-0.633,-0.633,0.681,41657731964.0,-10.427,1.951,1.89
251,251,2016-01-09 16:37:13.52,-0.604,-0.622,0.706,41702551964.0,-12.805,-1.159,4.146
252,252,2016-01-09 16:37:13.56,-0.507,-0.603,0.7,41712282745.0,-9.695,-1.341,1.89
253,253,2016-01-09 16:37:13.64,-0.415,-0.574,0.692,41754167016.0,-3.78,-13.293,-4.695
254,254,2016-01-09 16:37:13.68,-0.382,-0.573,0.709,41764369985.0,-0.244,-14.451,-14.39
255,255,2016-01-09 16:37:13.72,-0.457,-0.58,0.758,41808282224.0,-1.524,-19.512,-20.427
256,256,2016-01-09 16:37:13.76,-0.42,-0.57,0.705,41812181703.0,-1.098,-24.634,-19.146
257,257,2016-01-09 16:37:13.80,-0.391,-0.638,0.682,41859188474.0,0.366,-25.549,-17.256
258,258,2016-01-09 16:37:13.84,-0.272,-0.693,0.744,41864887120.0,-0.427,-28.72,-14.207
259,259,2016-01-09 16:37:13.88,-0.257,-0.653,0.735,41941398943.0,0.549,-24.268,-11.707
260,260,2016-01-09 16:37:13.92,-0.395,-0.642,0.824,41963997954.0,-1.768,-20.427,-18.78
261,261,2016-01-09 16:37:13.96,-0.386,-0.672,0.779,41968270245.0,1.951,-12.073,-14.756
262,262,2016-01-09 16:37:14.04,-0.205,-0.57,0.744,42021333214.0,3.415,-31.28,0.671
263,263,2016-01-09 16:37:14.08,-0.208,-0.571,0.742,42022513891.0,12.744,-34.085,-7.012
264,264,2016-01-09 16:37:14.12,-0.099,-0.664,0.798,42151491651.0,5.61,-35.122,-11.646
265,265,2016-01-09 16:37:14.16,-0.231,-0.598,0.832,42153248162.0,-4.756,-24.451,-10.061
266,266,2016-01-09 16:37:14.20,-0.289,-0.593,0.778,42202677433.0,-5.122,-21.098,-13.537
267,267,2016-01-09 16:37:14.24,-0.232,-0.629,0.777,42204412797.0,6.037,-5.61,-5.122
268,268,2016-01-09 16:37:14.28,-0.218,-0.703,0.802,42251487849.0,-2.439,-12.439,5.305
269,269,2016-01-09 16:37:14.32,-0.223,-0.63,0.741,42253306547.0,-3.476,-12.988,9.756
270,270,2016-01-09 16:37:14.36,-0.145,-0.61,0.727,42301407120.0,-8.537,-9.024,11.341
271,271,2016-01-09 16:37:14.40,-0.177,-0.665,0.767,42303440558.0,-8.841,-2.683,13.293
272,272,2016-01-09 16:37:14.43,-0.247,-0.63,0.752,42351043629.0,-4.573,5.0,16.098
273,273,2016-01-09 16:37:14.47,-0.271,-0.635,0.765,,,,
274,274,2016-01-09 16:37:14.52,-0.25,-0.654,0.801,42401078838.0,-2.378,10.244,20.732
275,275,2016-01-09 16:37:14.56,-0.258,-0.614,0.788,42403533162.0,-0.244,9.329,21.159
276,276,2016-01-09 16:37:14.59,-0.275,-0.573,0.772,42451505452.0,-3.354,12.317,15.427
277,277,2016-01-09 16:37:14.63,-0.322,-0.61,0.76,42454397014.0,-3.72,17.744,12.927
278,278,2016-01-09 16:37:14.67,-0.365,-0.612,0.761,42508934931.0,-4.634,18.659,9.939
279,279,2016-01-09 16:37:14.71,-0.36,-0.623,0.706,42515430817.0,-6.524,15.915,7.927
280,280,2016-01-09 16:37:14.75,-0.392,-0.654,0.703,42553029047.0,-8.476,22.073,9.878
281,281,2016-01-09 16:37:14.79,-0.442,-0.646,0.685,42557799463.0,-13.171,20.793,14.878
282,282,2016-01-09 16:37:14.83,-0.463,-0.601,0.621,42603334724.0,-14.756,26.463,17.683
283,283,2016-01-09 16:37:14.87,-0.506,-0.627,0.619,42611480088.0,-15.122,26.524,14.634
284,284,2016-01-09 16:37:14.91,-0.539,-0.661,0.611,42670854985.0,-12.073,24.085,9.634
285,285,2016-01-09 16:37:14.95,-0.506,-0.625,0.575,42685836287.0,-11.28,27.927,3.963
286,286,2016-01-09 16:37:14.99,-0.527,-0.679,0.65,42712479047.0,-13.841,23.841,-2.927
287,287,2016-01-09 16:37:15.03,-0.542,-0.651,0.664,42714726808.0,-11.646,11.463,-6.098
288,288,2016-01-09 16:37:15.07,-0.451,-0.585,0.667,42753173786.0,-6.951,9.695,-7.744
289,289,2016-01-09 16:37:15.11,-0.385,-0.666,0.722,42755675765.0,-0.061,1.646,-8.598
290,290,2016-01-09 16:37:15.15,-0.39,-0.677,0.704,42802407016.0,9.268,-6.646,-5.366
291,291,2016-01-09 16:37:15.19,-0.394,-0.655,0.707,42805238474.0,5.671,-5.488,-5.366
292,292,2016-01-09 16:37:15.23,-0.408,-0.642,0.657,42852972953.0,3.537,2.5,-5.854
293,293,2016-01-09 16:37:15.27,-0.401,-0.661,0.656,42855639151.0,3.78,5.061,-4.39
294,294,2016-01-09 16:37:15.31,-0.405,-0.665,0.683,42903981441.0,1.585,4.817,-3.293
295,295,2016-01-09 16:37:15.39,-0.459,-0.659,0.662,42950867797.0,2.317,11.159,9.146
296,296,2016-01-09 16:37:15.43,-0.527,-0.638,0.629,43070634463.0,2.378,14.695,12.988
297,297,2016-01-09 16:37:15.47,-0.55,-0.622,0.617,43085929412.0,4.085,17.988,14.024
298,298,2016-01-09 16:37:15.51,-0.547,-0.592,0.624,43118653526.0,2.317,27.439,15.671
299,299,2016-01-09 16:37:15.55,-0.584,-0.577,0.628,43133886964.0,0.793,26.341,14.695
300,300,2016-01-09 16:37:15.59,-0.568,-0.602,0.65,43209920609.0,2.805,24.634,9.939
301,301,2016-01-09 16:37:15.63,-0.562,-0.611,0.622,43227275869.0,0.61,20.0,4.573
302,302,2016-01-09 16:37:15.67,-0.574,-0.635,0.642,43261960296.0,0.122,9.695,0.122
303,303,2016-01-09 16:37:15.71,-0.6,-0.611,0.629,43277989307.0,3.659,6.341,-2.5
304,304,2016-01-09 16:37:15.75,-0.556,-0.62,0.605,43309903942.0,5.854,12.256,-3.902
305,305,2016-01-09 16:37:15.79,-0.586,-0.617,0.542,43326237640.0,8.72,20.0,-3.537
306,306,2016-01-09 16:37:15.83,-0.641,-0.573,0.527,43361405140.0,10.0,18.354,-2.012
307,307,2016-01-09 16:37:15.87,-0.663,-0.536,0.559,43377472380.0,10.061,14.817,0.793
308,308,2016-01-09 16:37:15.91,-0.638,-0.521,0.637,43410144723.0,11.951,14.939,3.476
309,309,2016-01-09 16:37:15.95,-0.576,-0.541,0.701,43426696910.0,11.829,7.073,3.476
310,310,2016-01-09 16:37:15.99,-0.59,-0.556,0.772,43461332639.0,14.39,0.732,-1.768
311,311,2016-01-09 16:37:16.03,-0.586,-0.586,0.776,43477491181.0,12.988,1.22,-7.683
312,312,2016-01-09 16:37:16.07,-0.512,-0.573,0.673,43510006441.0,14.634,13.537,-3.049
313,313,2016-01-09 16:37:16.11,-0.537,-0.579,0.614,43526087639.0,10.915,16.341,-1.524
314,314,2016-01-09 16:37:16.15,-0.611,-0.509,0.55,43561467224.0,5.0,15.061,1.707
315,315,2016-01-09 16:37:16.18,-0.667,-0.522,0.543,43577668838.0,2.744,17.012,8.232
316,316,2016-01-09 16:37:16.23,-0.621,-0.574,0.662,43606906390.0,6.585,10.0,5.671
317,317,2016-01-09 16:37:16.26,-0.609,-0.562,0.7,,,,
318,318,2016-01-09 16:37:16.30,-0.664,-0.536,0.624,43677761910.0,11.585,19.695,-2.805
319,319,2016-01-09 16:37:16.34,-0.636,-0.573,0.585,43710168420.0,16.585,25.183,-0.427
320,320,2016-01-09 16:37:16.38,-0.711,-0.566,0.588,43734739254.0,11.28,14.39,1.951
321,321,2016-01-09 16:37:16.42,-0.713,-0.501,0.575,43756750035.0,7.683,10.793,6.402
322,322,2016-01-09 16:37:16.46,-0.698,-0.503,0.575,43759838004.0,0.976,16.707,4.024
323,323,2016-01-09 16:37:16.50,-0.719,-0.473,0.573,43799678837.0,-5.122,8.537,0.427
324,324,2016-01-09 16:37:16.54,-0.753,-0.441,0.567,43813149983.0,-3.659,9.878,-1.22
325,325,2016-01-09 16:37:16.58,-0.781,-0.494,0.583,43849747535.0,2.683,12.683,-5.0
326,326,2016-01-09 16:37:16.62,-0.742,-0.512,0.557,43852721806.0,7.439,11.585,-5.671
327,327,2016-01-09 16:37:16.66,-0.717,-0.509,0.561,43999570034.0,2.012,7.744,-5.915
328,328,2016-01-09 16:37:16.70,-0.722,-0.497,0.57,44003261598.0,3.72,2.439,-8.171
329,329,2016-01-09 16:37:16.74,-0.702,-0.523,0.585,44049869254.0,-0.488,5.061,-9.268
330,330,2016-01-09 16:37:16.78,-0.658,-0.558,0.606,44054265765.0,-3.841,1.098,-8.963
331,331,2016-01-09 16:37:16.82,-0.68,-0.549,0.604,44099978212.0,-6.22,-7.073,-8.902
332,332,2016-01-09 16:37:16.86,-0.69,-0.475,0.606,44105029618.0,-1.646,-8.902,-9.878
333,333,2016-01-09 16:37:16.90,-0.6,-0.517,0.637,44151601076.0,4.878,-6.829,-14.817
334,334,2016-01-09 16:37:16.94,-0.55,-0.548,0.607,44192109827.0,8.049,-16.707,-15.0
335,335,2016-01-09 16:37:16.98,-0.588,-0.574,0.655,44209730088.0,-0.305,-30.366,-9.817
336,336,2016-01-09 16:37:17.02,-0.637,-0.595,0.661,44212275504.0,1.707,-18.476,-6.707
337,337,2016-01-09 16:37:17.06,-0.615,-0.566,0.637,44252906128.0,1.524,-7.012,-4.512
338,338,2016-01-09 16:37:17.14,-0.579,-0.535,0.678,44255474201.0,-1.037,-8.902,-7.561
339,339,2016-01-09 16:37:17.18,-0.532,-0.562,0.617,44302712014.0,2.927,-11.341,-5.976
340,340,2016-01-09 16:37:17.22,-0.569,-0.519,0.673,44305303993.0,3.72,-9.146,-6.89
341,341,2016-01-09 16:37:17.26,-0.571,-0.594,0.706,44352742013.0,5.488,-21.22,-10.854
342,342,2016-01-09 16:37:17.30,-0.544,-0.586,0.74,44355310503.0,6.829,-19.207,-12.744
343,343,2016-01-09 16:37:17.34,-0.523,-0.505,0.753,44404916704.0,5.671,-25.671,-19.207
344,344,2016-01-09 16:37:17.38,-0.516,-0.479,0.735,44415621443.0,9.451,-30.732,-27.866
345,345,2016-01-09 16:37:17.42,-0.405,-0.441,0.719,44461272588.0,9.085,-44.878,-30.915
346,346,2016-01-09 16:37:17.46,-0.304,-0.528,0.745,44518850140.0,9.512,-31.585,-29.695
347,347,2016-01-09 16:37:17.50,-0.319,-0.689,0.862,44533949932.0,14.024,-30.427,-18.537
348,348,2016-01-09 16:37:17.54,-0.351,-0.644,0.909,44570305036.0,1.402,-36.89,-5.183
349,349,2016-01-09 16:37:17.58,-0.359,-0.55,0.828,44585555036.0,-4.939,-31.159,-2.622
350,350,2016-01-09 16:37:17.62,-0.314,-0.513,0.707,44618818265.0,-2.439,-17.927,-4.329
351,351,2016-01-09 16:37:17.66,-0.35,-0.56,0.743,44633955348.0,-4.451,0.549,-3.11
352,352,2016-01-09 16:37:17.70,-0.362,-0.566,0.829,44670121129.0,-9.146,4.695,0.0
353,353,2016-01-09 16:37:17.74,-0.331,-0.523,0.807,44685583005.0,-3.659,-2.439,2.5
354,354,2016-01-09 16:37:17.78,-0.289,-0.482,0.816,44718672640.0,6.829,-10.427,6.829
355,355,2016-01-09 16:37:17.82,-0.382,-0.591,0.843,44734219255.0,8.963,-15.793,8.598
356,356,2016-01-09 16:37:17.86,-0.388,-0.554,0.779,44770650556.0,9.756,-15.671,9.512
357,357,2016-01-09 16:37:17.90,-0.323,-0.506,0.757,44810765296.0,-1.037,-9.573,7.805
358,358,2016-01-09 16:37:17.94,-0.316,-0.54,0.808,44818608265.0,-7.317,-7.683,10.183
359,359,2016-01-09 16:37:17.97,-0.35,-0.613,0.854,44899623107.0,-3.415,-6.28,12.927
360,360,2016-01-09 16:37:18.01,-0.365,-0.629,0.789,44905249202.0,-3.049,-2.439,7.988
361,361,2016-01-09 16:37:18.05,-0.386,-0.584,0.765,44949619514.0,-0.793,-3.598,1.768
362,362,2016-01-09 16:37:18.09,-0.436,-0.524,0.762,,,,
363,363,2016-01-09 16:37:18.14,-0.408,-0.445,0.798,45012731807.0,0.976,-1.098,1.89
364,364,2016-01-09 16:37:18.17,-0.343,-0.531,0.863,45065847795.0,5.976,-0.305,-1.524
365,365,2016-01-09 16:37:18.21,-0.349,-0.541,0.833,45078668888.0,11.829,-5.732,-0.732
366,366,2016-01-09 16:37:18.25,-0.322,-0.551,0.811,45114181545.0,10.305,-19.817,0.549
367,367,2016-01-09 16:37:18.29,-0.329,-0.482,0.796,45125457274.0,6.646,-14.024,2.073
368,368,2016-01-09 16:37:18.33,-0.33,-0.503,0.839,45161043837.0,6.585,-10.0,-3.171
369,369,2016-01-09 16:37:18.37,-0.278,-0.54,0.889,45219005869.0,7.378,-14.024,-0.061
370,370,2016-01-09 16:37:18.41,-0.281,-0.472,0.844,45234278317.0,7.683,-16.22,0.915
371,371,2016-01-09 16:37:18.45,-0.211,-0.48,0.854,45318648942.0,3.902,-14.573,0.732
372,372,2016-01-09 16:37:18.49,-0.241,-0.504,0.87,45333555713.0,5.0,-12.012,4.695
373,373,2016-01-09 16:37:18.53,-0.296,-0.473,0.862,45366955504.0,5.305,-10.793,8.72
374,374,2016-01-09 16:37:18.57,-0.353,-0.48,0.857,45410057378.0,0.549,-3.171,5.061
375,375,2016-01-09 16:37:18.61,-0.355,-0.526,0.83,45426078108.0,-0.549,5.183,-1.646
376,376,2016-01-09 16:37:18.65,-0.318,-0.513,0.819,45459860452.0,-2.622,9.878,1.22
377,377,2016-01-09 16:37:18.69,-0.352,-0.467,0.843,45477765556.0,-5.488,6.463,2.866
378,378,2016-01-09 16:37:18.73,-0.302,-0.489,0.882,45514459098.0,-3.232,-0.061,-2.012
379,379,2016-01-09 16:37:18.77,-0.374,-0.413,0.877,45528117587.0,-2.683,3.354,-8.963
380,380,2016-01-09 16:37:18.81,-0.343,-0.468,0.828,45669724775.0,-8.598,4.939,-13.659
381,381,2016-01-09 16:37:18.89,-0.277,-0.549,0.787,45687939723.0,-8.476,1.28,2.622
382,382,2016-01-09 16:37:18.93,-0.24,-0.557,0.841,45716544827.0,-10.0,-11.524,-5.61
383,383,2016-01-09 16:37:18.97,-0.37,-0.49,0.844,45718792796.0,-8.841,-0.549,-7.012
384,384,2016-01-09 16:37:19.01,-0.359,-0.495,0.801,45752526909.0,-5.854,10.854,-8.78
385,385,2016-01-09 16:37:19.05,-0.315,-0.643,0.798,45755071285.0,-5.427,22.012,-7.012
386,386,2016-01-09 16:37:19.09,-0.338,-0.712,0.806,45802811234.0,-15.976,24.512,2.256
387,387,2016-01-09 16:37:19.13,-0.384,-0.544,0.804,45805405244.0,-24.878,35.427,5.305
388,388,2016-01-09 16:37:19.17,-0.395,-0.534,0.732,45852746231.0,-28.659,32.561,-10.976
389,389,2016-01-09 16:37:19.21,-0.384,-0.588,0.643,45855367221.0,-11.098,6.768,1.585
390,390,2016-01-09 16:37:19.25,-0.434,-0.619,0.673,45903426755.0,-16.402,-8.598,-1.22
391,391,2016-01-09 16:37:19.29,-0.418,-0.664,0.675,46004985921.0,-32.683,14.817,-3.841
392,392,2016-01-09 16:37:19.33,-0.376,-0.68,0.725,46017196598.0,-30.366,23.11,7.866
393,393,2016-01-09 16:37:19.37,-0.456,-0.684,0.774,46068976024.0,-21.951,21.098,5.244
394,394,2016-01-09 16:37:19.41,-0.319,-0.64,0.727,46086187639.0,-12.378,30.976,1.159
395,395,2016-01-09 16:37:19.45,-0.361,-0.63,0.736,46219306961.0,-16.22,33.537,3.72
396,396,2016-01-09 16:37:19.49,-0.494,-0.608,0.69,46234848368.0,-12.317,16.037,9.878
397,397,2016-01-09 16:37:19.53,-0.491,-0.646,0.58,46268822170.0,-19.878,33.354,11.22
398,398,2016-01-09 16:37:19.57,-0.561,-0.708,0.568,46286464253.0,-25.366,43.354,8.232
399,399,2016-01-09 16:37:19.61,-0.55,-0.69,0.546,46368895295.0,-22.683,37.378,11.829
400,400,2016-01-09 16:37:19.65,-0.55,-0.676,0.468,46386449358.0,-27.866,36.89,16.951
401,401,2016-01-09 16:37:19.69,-0.608,-0.717,0.461,46411310503.0,-29.451,37.622,13.902
402,402,2016-01-09 16:37:19.73,-0.561,-0.713,0.462,46413589410.0,-23.232,40.732,15.976
403,403,2016-01-09 16:37:19.77,-0.628,-0.706,0.465,46452744305.0,-19.878,41.037,15.915
404,404,2016-01-09 16:37:19.81,-0.61,-0.649,0.396,46455443993.0,-20.427,36.22,15.0
405,405,2016-01-09 16:37:19.84,-0.644,-0.672,0.405,46502699931.0,-14.695,34.146,29.451
406,406,2016-01-09 16:37:19.88,-0.726,-0.757,0.415,46505302691.0,-17.012,32.988,29.878
407,407,2016-01-09 16:37:19.92,-0.763,-0.713,0.41,,,,
408,408,2016-01-09 16:37:19.96,-0.745,-0.657,0.378,46555240348.0,-18.963,36.951,27.439
409,409,2016-01-09 16:37:20.00,-0.743,-0.599,0.301,46603809827.0,-18.11,40.793,25.0
410,410,2016-01-09 16:37:20.04,-0.8,-0.595,0.254,46612896337.0,-15.61,39.817,18.841
411,411,2016-01-09 16:37:20.08,-0.88,-0.593,0.223,46663411389.0,-11.585,37.805,21.707
412,412,2016-01-09 16:37:20.12,-0.797,-0.587,0.201,46675315504.0,-16.098,34.085,24.573
413,413,2016-01-09 16:37:20.16,-0.729,-0.556,0.165,46714239201.0,-21.524,32.744,19.512
414,414,2016-01-09 16:37:20.20,-0.794,-0.565,0.169,46725264878.0,-14.207,27.012,18.963
415,415,2016-01-09 16:37:20.24,-0.859,-0.633,0.153,46763975868.0,-17.927,9.939,23.049
416,416,2016-01-09 16:37:20.28,-0.915,-0.631,0.184,46775372222.0,-23.963,9.451,24.146
417,417,2016-01-09 16:37:20.32,-0.939,-0.579,0.178,46814298367.0,-17.561,13.659,23.476
418,418,2016-01-09 16:37:20.36,-0.96,-0.572,0.127,46825366805.0,-6.28,27.927,17.012
419,419,2016-01-09 16:37:20.40,-0.94,-0.517,0.082,46865188159.0,-0.305,31.951,11.098
420,420,2016-01-09 16:37:20.44,-0.875,-0.477,0.116,46901860971.0,-3.415,27.073,12.927
421,421,2016-01-09 16:37:20.48,-0.885,-0.479,0.122,46920079514.0,-5.244,20.488,10.549
422,422,2016-01-09 16:37:20.52,-0.922,-0.493,0.083,46951399878.0,-5.122,16.463,4.939
423,423,2016-01-09 16:37:20.56,-0.933,-0.516,0.048,47069097326.0,-6.341,15.854,1.28
424,424,2016-01-09 16:37:20.64,-0.865,-0.483,0.081,47085871962.0,-8.171,12.439,-1.463
425,425,2016-01-09 16:37:20.68,-0.896,-0.476,0.065,47119012847.0,-8.293,10.061,-1.159
426,426,2016-01-09 16:37:20.72,-0.955,-0.499,0.098,47134265295.0,-2.195,4.268,-2.561
427,427,2016-01-09 16:37:20.76,-0.927,-0.545,0.136,47168762951.0,-3.902,-17.805,-4.878
428,428,2016-01-09 16:37:20.80,-0.902,-0.591,0.174,47188949618.0,-5.732,-19.634,-7.134
429,429,2016-01-09 16:37:20.84,-0.856,-0.589,0.184,47208120399.0,-13.354,-21.707,-9.573
430,430,2016-01-09 16:37:20.88,-0.832,-0.593,0.198,47210643785.0,-20.305,-22.561,-17.134
431,431,2016-01-09 16:37:20.92,-0.841,-0.56,0.201,47252295138.0,-22.561,-23.049,-25.488
432,432,2016-01-09 16:37:20.96,-0.831,-0.565,0.197,47255226024.0,-18.171,-24.451,-27.866
433,433,2016-01-09 16:37:21.04,-0.826,-0.671,0.233,47302695401.0,-19.024,-29.207,-28.293
434,434,2016-01-09 16:37:21.08,-0.831,-0.674,0.211,47305310400.0,-18.902,-38.171,-25.0
435,435,2016-01-09 16:37:21.12,-0.826,-0.681,0.141,47352726387.0,-17.073,-34.512,-18.293
436,436,2016-01-09 16:37:21.16,-0.844,-0.749,0.212,47355326856.0,-7.988,-24.451,-17.439
437,437,2016-01-09 16:37:21.20,-0.783,-0.669,0.313,47403872328.0,-1.098,-22.439,-20.915
438,438,2016-01-09 16:37:21.24,-0.661,-0.576,0.325,47428314514.0,-0.427,-19.756,-21.89
439,439,2016-01-09 16:37:21.28,-0.631,-0.598,0.319,47458170555.0,-3.354,-31.28,-25.854
440,440,2016-01-09 16:37:21.32,-0.669,-0.652,0.341,47460767846.0,-8.354,-47.256,-26.037
441,441,2016-01-09 16:37:21.36,-0.675,-0.684,0.293,47502908316.0,-10.183,-46.28,-19.024
442,442,2016-01-09 16:37:21.40,-0.696,-0.684,0.311,47505448785.0,0.549,-39.878,-15.671
443,443,2016-01-09 16:37:21.43,-0.664,-0.772,0.356,47552297794.0,14.146,-27.744,-16.89
444,444,2016-01-09 16:37:21.47,-0.622,-0.793,0.438,,,,
445,445,2016-01-09 16:37:21.52,-0.603,-0.773,0.467,47601467742.0,16.463,-16.28,-12.988
446,446,2016-01-09 16:37:21.56,-0.572,-0.756,0.464,47652305555.0,21.402,-7.5,-11.159
447,447,2016-01-09 16:37:21.59,-0.597,-0.706,0.452,47662604045.0,18.11,-4.695,-8.354
448,448,2016-01-09 16:37:21.63,-0.572,-0.685,0.429,47767147275.0,14.634,-8.232,-0.854
449,449,2016-01-09 16:37:21.67,-0.608,-0.7,0.449,47780763108.0,13.293,-4.146,4.268
450,450,2016-01-09 16:37:21.71,-0.625,-0.686,0.449,47808381336.0,7.805,-6.28,5.671
451,451,2016-01-09 16:37:21.76,-0.601,-0.687,0.442,47810856231.0,7.683,0.793,8.354
452,452,2016-01-09 16:37:21.79,-0.625,-0.682,0.456,47852720763.0,8.476,4.939,9.573
453,453,2016-01-09 16:37:21.83,-0.647,-0.66,0.433,47855378419.0,5.0,3.841,8.78
454,454,2016-01-09 16:37:21.87,-0.646,-0.665,0.437,47999465035.0,3.841,2.805,9.817
455,455,2016-01-09 16:37:21.91,-0.653,-0.706,0.394,48008749150.0,1.463,3.537,7.012
456,456,2016-01-09 16:37:21.95,-0.729,-0.75,0.379,48050982480.0,-3.415,-1.28,7.744
457,457,2016-01-09 16:37:21.99,-0.744,-0.736,0.407,48067358941.0,-6.037,0.976,3.476
458,458,2016-01-09 16:37:22.03,-0.647,-0.679,0.44,48101807326.0,-5.061,5.122,0.0
459,459,2016-01-09 16:37:22.07,-0.65,-0.594,0.431,48119827534.0,5.793,4.268,-6.951
460,460,2016-01-09 16:37:22.11,-0.639,-0.531,0.447,48157315243.0,13.841,0.366,-11.28
461,461,2016-01-09 16:37:22.15,-0.607,-0.562,0.521,48169995556.0,17.988,-2.317,-11.22
462,462,2016-01-09 16:37:22.19,-0.696,-0.679,0.547,48214243160.0,23.659,-11.524,-13.11
463,463,2016-01-09 16:37:22.23,-0.623,-0.741,0.562,48225367222.0,18.293,-14.512,-9.146
464,464,2016-01-09 16:37:22.27,-0.604,-0.687,0.539,48263908733.0,12.866,-4.878,-2.5
465,465,2016-01-09 16:37:22.31,-0.634,-0.654,0.519,48275000504.0,10.366,-1.037,-0.366
466,466,2016-01-09 16:37:22.35,-0.607,-0.667,0.482,48314678056.0,7.256,16.646,-4.756
467,467,2016-01-09 16:37:22.39,-0.604,-0.676,0.428,48325909931.0,-1.829,26.646,-6.22
468,468,2016-01-09 16:37:22.43,-0.651,-0.686,0.363,48361365451.0,-8.963,20.305,-5.732
469,469,2016-01-09 16:37:22.47,-0.697,-0.693,0.357,48417727742.0,-10.122,20.671,-4.756
470,470,2016-01-09 16:37:22.51,-0.682,-0.671,0.327,48432983524.0,-8.293,24.024,-5.854
471,471,2016-01-09 16:37:22.55,-0.682,-0.676,0.366,48468972430.0,-7.5,24.634,-6.098
472,472,2016-01-09 16:37:22.59,-0.692,-0.698,0.379,48484338836.0,-0.915,23.963,-3.293
473,473,2016-01-09 16:37:22.63,-0.698,-0.692,0.394,48518959305.0,3.902,22.805,0.488
474,474,2016-01-09 16:37:22.67,-0.712,-0.675,0.385,48534355972.0,9.146,15.549,3.415
475,475,2016-01-09 16:37:22.71,-0.71,-0.68,0.396,48568836857.0,10.427,13.232,10.671
476,476,2016-01-09 16:37:22.75,-0.706,-0.657,0.381,48584274253.0,9.817,14.695,15.671
477,477,2016-01-09 16:37:22.79,-0.724,-0.62,0.376,48610789252.0,9.634,19.817,16.829
478,478,2016-01-09 16:37:22.83,-0.687,-0.622,0.387,48613479878.0,6.402,27.561,14.756
479,479,2016-01-09 16:37:22.87,-0.727,-0.623,0.36,48652314096.0,2.5,28.78,11.037
480,480,2016-01-09 16:37:22.91,-0.744,-0.658,0.324,48655204878.0,-4.268,20.732,7.622
481,481,2016-01-09 16:37:22.95,-0.765,-0.692,0.363,48702377065.0,-4.085,17.012,5.366
482,482,2016-01-09 16:37:22.99,-0.786,-0.708,0.393,48705220086.0,-3.049,14.39,5.732
483,483,2016-01-09 16:37:23.03,-0.755,-0.681,0.363,48799492116.0,0.915,7.927,10.427
484,484,2016-01-09 16:37:23.07,-0.785,-0.621,0.326,48807784512.0,3.11,-3.415,11.22
485,485,2016-01-09 16:37:23.11,-0.79,-0.543,0.346,48858845034.0,7.317,-4.878,11.585
486,486,2016-01-09 16:37:23.15,-0.808,-0.499,0.367,48959988159.0,15.61,8.171,13.902
487,487,2016-01-09 16:37:23.19,-0.822,-0.546,0.378,48976403368.0,25.061,13.354,9.268
488,488,2016-01-09 16:37:23.23,-0.776,-0.532,0.435,49006210868.0,31.463,17.134,1.22
489,489,2016-01-09 16:37:23.27,-0.754,-0.483,0.462,49009552378.0,30.0,16.524,-2.012
490,490,2016-01-09 16:37:23.31,-0.782,-0.531,0.466,49049439617.0,31.098,15.061,-2.134
491,491,2016-01-09 16:37:23.34,-0.832,-0.575,0.394,49054047482.0,25.366,12.5,0.61
492,492,2016-01-09 16:37:23.39,-0.836,-0.554,0.382,49099491126.0,15.305,11.159,6.707
493,493,2016-01-09 16:37:23.42,-0.832,-0.596,0.393,49103992638.0,9.878,17.317,13.11
494,494,2016-01-09 16:37:23.46,-0.829,-0.524,0.366,49149497691.0,9.939,25.976,13.902
495,495,2016-01-09 16:37:23.50,-0.843,-0.455,0.337,49153946077.0,1.829,24.39,14.329
496,496,2016-01-09 16:37:23.54,-0.833,-0.509,0.338,,,,
497,497,2016-01-09 16:37:23.58,-0.865,-0.464,0.32,49212257012.0,4.329,12.683,7.683
498,498,2016-01-09 16:37:23.62,-0.903,-0.46,0.304,49256964095.0,4.39,10.366,7.683
499,499,2016-01-09 16:37:23.66,-0.961,-0.475,0.286,49268919200.0,8.171,12.134,3.902
500,500,2016-01-09 16:37:23.70,-0.917,-0.491,0.254,49301648836.0,1.89,10.488,0.305
501,501,2016-01-09 16:37:23.74,-0.904,-0.499,0.246,49319138940.0,2.744,9.329,-1.707
502,502,2016-01-09 16:37:23.78,-0.906,-0.503,0.256,49357935451.0,2.561,0.305,-1.951
503,503,2016-01-09 16:37:23.82,-0.812,-0.412,0.302,49369755606.0,-2.561,-2.866,-4.207
504,504,2016-01-09 16:37:23.86,-0.851,-0.395,0.335,49415680085.0,-6.098,-10.549,-13.293
505,505,2016-01-09 16:37:23.90,-0.893,-0.529,0.395,49427692741.0,-2.256,-23.171,-21.28
506,506,2016-01-09 16:37:23.94,-0.855,-0.533,0.373,49519339566.0,4.329,-27.5,-21.707
507,507,2016-01-09 16:37:23.98,-0.885,-0.535,0.391,49534299879.0,-2.256,-29.146,-20.549
508,508,2016-01-09 16:37:24.02,-0.787,-0.545,0.418,49568655868.0,3.537,-23.354,-25.427
509,509,2016-01-09 16:37:24.06,-0.764,-0.545,0.449,49583806806.0,2.988,-26.951,-30.488
510,510,2016-01-09 16:37:24.10,-0.66,-0.548,0.494,49620975242.0,-2.012,-39.878,-32.561
511,511,2016-01-09 16:37:24.14,-0.638,-0.608,0.564,49636551441.0,-7.988,-45.488,-33.72
512,512,2016-01-09 16:37:24.18,-0.719,-0.618,0.581,49657537170.0,-7.012,-53.78,-33.293
513,513,2016-01-09 16:37:24.22,-0.658,-0.601,0.543,49703079096.0,-0.61,-53.598,-30.61
514,514,2016-01-09 16:37:24.26,-0.6,-0.602,0.559,49705624565.0,10.549,-43.963,-32.805
515,515,2016-01-09 16:37:24.30,-0.576,-0.558,0.565,49752254409.0,11.829,-43.354,-33.171
516,516,2016-01-09 16:37:24.34,-0.552,-0.56,0.621,49755274358.0,18.659,-41.951,-36.341
517,517,2016-01-09 16:37:24.38,-0.495,-0.608,0.687,49803398731.0,24.634,-43.537,-42.683
518,518,2016-01-09 16:37:24.42,-0.414,-0.644,0.744,49905681595.0,25.183,-55.305,-41.646
519,519,2016-01-09 16:37:24.46,-0.34,-0.643,0.765,49917798574.0,14.878,-62.866,-38.11
520,520,2016-01-09 16:37:24.50,-0.33,-0.619,0.778,49968762378.0,6.341,-62.5,-34.512
521,521,2016-01-09 16:37:24.54,-0.241,-0.63,0.782,49984095189.0,7.866,-58.659,-30.915
522,522,2016-01-09 16:37:24.58,-0.165,-0.628,0.754,50020293471.0,5.488,-48.841,-27.561
523,523,2016-01-09 16:37:24.62,-0.266,-0.646,0.748,50036294773.0,-1.402,-43.232,-30.305
524,524,2016-01-09 16:37:24.66,-0.224,-0.638,0.731,50061425450.0,-4.024,-28.293,-30.427
525,525,2016-01-09 16:37:24.70,-0.221,-0.678,0.738,50063714878.0,-8.293,-11.159,-37.866
526,526,2016-01-09 16:37:24.74,-0.222,-0.698,0.714,50101737741.0,-11.463,-13.476,-41.707
527,527,2016-01-09 16:37:24.78,-0.224,-0.701,0.719,50149474460.0,-11.22,-3.415,-34.634
528,528,2016-01-09 16:37:24.82,-0.164,-0.656,0.74,50153911388.0,-7.317,-3.476,-40.976
529,529,2016-01-09 16:37:24.86,-0.04,-0.62,0.765,50199466023.0,-1.585,-7.195,-49.024
530,530,2016-01-09 16:37:24.90,-0.005,-0.595,0.799,50204192430.0,3.171,-11.037,-40.305
531,531,2016-01-09 16:37:24.94,-0.039,-0.645,0.785,50249467584.0,1.037,-22.927,-28.049
532,532,2016-01-09 16:37:24.98,-0.062,-0.7,0.8,50258709355.0,0.366,-23.537,-24.695
533,533,2016-01-09 16:37:25.01,0.008,-0.762,0.783,50309920659.0,-2.683,-21.098,-14.451
534,534,2016-01-09 16:37:25.06,0.07,-0.675,0.729,50326375086.0,-13.11,-20.244,-3.11
535,535,2016-01-09 16:37:25.14,0.147,-0.717,0.696,50352699826.0,-20.671,-24.939,7.744
536,536,2016-01-09 16:37:25.17,0.127,-0.741,0.651,50377377065.0,-24.085,-27.378,8.415
537,537,2016-01-09 16:37:25.21,0.03,-0.772,0.595,50402695034.0,-30.061,-28.232,13.293
538,538,2016-01-09 16:37:25.25,-0.032,-0.752,0.577,50428758159.0,-29.756,-18.11,18.293
539,539,2016-01-09 16:37:25.29,-0.042,-0.845,0.577,50452714826.0,-33.902,0.305,24.024
540,540,2016-01-09 16:37:25.33,-0.027,-0.857,0.605,50462199460.0,-33.963,11.159,28.78
541,541,2016-01-09 16:37:25.37,-0.047,-0.805,0.58,50499439720.0,-30.122,15.549,19.878
542,542,2016-01-09 16:37:25.41,-0.064,-0.892,0.547,50503945815.0,-21.037,12.988,14.695
543,543,2016-01-09 16:37:25.45,-0.022,-0.839,0.491,50549467169.0,-12.927,9.695,25.915
544,544,2016-01-09 16:37:25.49,-0.06,-0.788,0.449,50553943003.0,-9.39,3.11,22.927
545,545,2016-01-09 16:37:25.53,-0.107,-0.773,0.528,50602375138.0,-3.963,6.585,29.756
546,546,2016-01-09 16:37:25.57,-0.135,-0.842,0.527,50605216336.0,0.976,11.585,29.268
547,547,2016-01-09 16:37:25.61,-0.231,-0.812,0.49,50652275032.0,0.61,30.366,31.28
548,548,2016-01-09 16:37:25.65,-0.166,-0.798,0.532,50662632169.0,1.768,48.354,33.598
549,549,2016-01-09 16:37:25.69,-0.223,-0.845,0.586,50716120450.0,-0.732,65.732,35.61
550,550,2016-01-09 16:37:25.73,-0.399,-0.733,0.566,50876816283.0,9.085,66.585,27.805
551,551,2016-01-09 16:37:25.77,-0.404,-0.746,0.612,50888837012.0,7.317,74.695,34.573
552,552,2016-01-09 16:37:25.81,-0.48,-0.729,0.623,50902514043.0,15.488,76.402,40.427
553,553,2016-01-09 16:37:25.85,-0.592,-0.649,0.577,50905130189.0,25.915,63.11,36.829
554,554,2016-01-09 16:37:25.89,-0.591,-0.691,0.546,50952507168.0,20.366,68.537,36.585
555,555,2016-01-09 16:37:25.93,-0.638,-0.675,0.483,50955030658.0,18.232,65.061,32.683
556,556,2016-01-09 16:37:25.97,-0.675,-0.568,0.418,51002646178.0,16.341,56.951,28.537
557,557,2016-01-09 16:37:26.01,-0.705,-0.558,0.429,51005221074.0,15.061,59.817,30.976
558,558,2016-01-09 16:37:26.09,-0.867,-0.532,0.396,51052258574.0,15.854,58.659,24.573
559,559,2016-01-09 16:37:26.13,-0.855,-0.59,0.41,51055112481.0,12.866,47.073,11.524
560,560,2016-01-09 16:37:26.17,-0.815,-0.537,0.392,51102216282.0,12.744,44.329,-0.915
561,561,2016-01-09 16:37:26.21,-0.833,-0.532,0.371,51113309303.0,12.439,36.707,0.0
562,562,2016-01-09 16:37:26.25,-0.799,-0.582,0.369,51163468158.0,7.439,22.988,1.037
563,563,2016-01-09 16:37:26.29,-0.781,-0.586,0.406,51175372325.0,3.537,7.378,-2.866
564,564,2016-01-09 16:37:26.33,-0.734,-0.595,0.414,51215075293.0,-1.768,-6.524,-5.122
565,565,2016-01-09 16:37:26.37,-0.647,-0.653,0.464,51226257741.0,-5.61,-23.963,-3.963
566,566,2016-01-09 16:37:26.41,-0.571,-0.716,0.523,51263986439.0,-13.293,-41.951,-2.134
567,567,2016-01-09 16:37:26.45,-0.618,-0.704,0.538,51275126387.0,-14.756,-54.573,-11.89
568,568,2016-01-09 16:37:26.49,-0.539,-0.657,0.663,51315800450.0,-13.171,-57.622,-11.463
569,569,2016-01-09 16:37:26.53,-0.517,-0.658,0.757,51327004825.0,-18.049,-53.78,-0.183
570,570,2016-01-09 16:37:26.57,-0.518,-0.56,0.769,51363869980.0,-16.768,-50.549,-2.012
571,571,2016-01-09 16:37:26.61,-0.534,-0.465,0.695,51374964772.0,-32.317,-41.22,-17.866
572,572,2016-01-09 16:37:26.65,-0.553,-0.584,0.627,51413968106.0,-40.183,-17.5,-40.427
573,573,2016-01-09 16:37:26.69,-0.593,-0.703,0.687,51426689200.0,-27.195,-0.854,-62.805
574,574,2016-01-09 16:37:26.73,-0.839,-0.664,0.485,51463792481.0,-19.695,17.317,-64.207
575,575,2016-01-09 16:37:26.77,-0.71,-0.979,0.445,51475887950.0,-35.915,27.439,-41.098
576,576,2016-01-09 16:37:26.81,-0.496,-1.036,0.217,51514242064.0,-34.085,29.573,-30.61
577,577,2016-01-09 16:37:26.84,-0.54,-0.913,0.292,51525603002.0,-26.768,5.61,-42.195
578,578,2016-01-09 16:37:26.88,-0.46,-0.865,0.329,51565071752.0,-44.817,9.695,-53.902
579,579,2016-01-09 16:37:26.92,-0.26,-0.861,0.268,,,,
580,580,2016-01-09 16:37:26.96,0.009,-1.047,0.185,51607873939.0,-77.988,-50.244,-3.11
581,581,2016-01-09 16:37:27.01,0.192,-0.98,0.069,51799496908.0,-66.707,-47.683,14.085
582,582,2016-01-09 16:37:27.04,-0.151,-0.749,0.077,51810021960.0,-53.537,-24.268,40.915
583,583,2016-01-09 16:37:27.08,-0.461,-0.68,0.133,51851688626.0,-36.951,15.915,67.622
584,584,2016-01-09 16:37:27.12,-0.458,-0.685,0.144,51870202585.0,-16.402,59.512,75.793
585,585,2016-01-09 16:37:27.16,-0.553,-0.819,0.208,51901711178.0,-10.671,45.366,64.695
586,586,2016-01-09 16:37:27.20,-0.793,-0.991,0.316,51921011491.0,17.561,42.866,30.427
587,587,2016-01-09 16:37:27.24,-0.622,-1.033,0.207,51963897741.0,39.878,58.415,-5.488
588,588,2016-01-09 16:37:27.28,-0.559,-0.9,0.22,51978368783.0,25.183,28.78,-6.037
589,589,2016-01-09 16:37:27.32,-0.631,-0.737,0.22,52013249981.0,9.329,-30.976,16.037
590,590,2016-01-09 16:37:27.36,-0.686,-0.482,0.223,52025917585.0,-6.463,2.378,22.256
591,591,2016-01-09 16:37:27.40,-0.584,-0.649,0.307,52062987116.0,-25.549,16.585,11.707
592,592,2016-01-09 16:37:27.44,-0.664,-0.645,0.26,52078272637.0,-22.134,-5.793,1.037
593,593,2016-01-09 16:37:27.48,-0.706,-0.768,0.225,52113194877.0,-28.415,-26.768,-3.659
594,594,2016-01-09 16:37:27.52,-0.646,-1.021,0.252,52125930241.0,-12.927,-16.098,-0.61
595,595,2016-01-09 16:37:27.56,-0.625,-0.913,0.26,52163053158.0,-4.451,-2.805,-4.573
596,596,2016-01-09 16:37:27.60,-0.572,-0.779,0.227,52177270554.0,-2.256,12.5,-5.122
597,597,2016-01-09 16:37:27.68,-0.558,-0.755,0.125,52213160084.0,5.0,17.561,17.439
598,598,2016-01-09 16:37:27.72,-0.63,-0.794,0.121,52225585501.0,-3.11,18.293,17.988
599,599,2016-01-09 16:37:27.76,-0.688,-0.847,0.143,52263514408.0,-5.488,27.378,20.976
600,600,2016-01-09 16:37:27.84,-0.728,-0.793,0.115,52277925814.0,0.122,27.927,16.829
601,601,2016-01-09 16:37:27.88,-0.755,-0.687,0.102,52313062636.0,5.61,29.268,15.366
602,602,2016-01-09 16:37:27.92,-0.762,-0.753,0.157,52325712220.0,13.171,27.195,18.659
603,603,2016-01-09 16:37:27.96,-0.671,-0.781,0.145,52365613210.0,9.451,25.915,22.073
604,604,2016-01-09 16:37:27.00,-0.696,-0.776,0.075,52380072012.0,-0.915,12.317,23.415
605,605,2016-01-09 16:37:28.04,-0.801,-0.89,0.005,52451521229.0,4.085,-0.61,30.427
606,606,2016-01-09 16:37:28.08,-0.917,-0.881,0.083,52477954251.0,7.256,6.646,33.72
607,607,2016-01-09 16:37:28.12,-0.87,-0.681,0.083,52505315241.0,0.244,21.098,39.085
608,608,2016-01-09 16:37:28.16,-0.795,-0.585,0.012,52552130760.0,-0.427,41.463,50.427
609,609,2016-01-09 16:37:28.20,-0.753,-0.498,-0.12,52555302896.0,3.537,50.183,60.976
610,610,2016-01-09 16:37:28.24,-0.728,-0.462,-0.126,52602265346.0,4.329,55.061,62.683
611,611,2016-01-09 16:37:28.28,-0.714,-0.39,-0.146,52605183992.0,-1.037,60.549,62.134
612,612,2016-01-09 16:37:28.32,-0.796,-0.282,-0.197,52653218574.0,-18.049,75.915,58.11
613,613,2016-01-09 16:37:28.36,-0.616,-0.404,-0.228,52749427219.0,-29.756,88.11,33.537
614,614,2016-01-09 16:37:28.40,-0.623,-0.337,-0.331,52760967479.0,-48.232,79.329,-17.927
615,615,2016-01-09 16:37:28.44,-0.758,-0.547,-0.223,52809596908.0,-69.634,63.598,-46.402
616,616,2016-01-09 16:37:28.47,-0.958,-0.635,-0.484,,,,
617,617,2016-01-09 16:37:28.52,-0.89,-0.599,-0.626,52852737846.0,-67.073,93.537,-45.061
618,618,2016-01-09 16:37:28.56,-1.0,-1.068,-0.404,52880951230.0,-34.512,92.805,-37.317
619,619,2016-01-09 16:37:28.59,-1.115,-0.869,-0.451,52906436335.0,13.232,64.695,-1.646
620,620,2016-01-09 16:37:28.64,-0.841,-0.517,-0.35,52909718314.0,34.451,20.915,25.732
621,621,2016-01-09 16:37:28.68,-0.679,-0.446,-0.309,52999413522.0,67.073,-9.878,27.439
622,622,2016-01-09 16:37:28.71,-0.574,-0.448,-0.243,53003921908.0,52.5,-43.293,24.024
623,623,2016-01-09 16:37:28.76,-0.735,-0.621,-0.207,53049403522.0,13.354,-33.11,24.878
624,624,2016-01-09 16:37:28.80,-0.879,-0.632,-0.255,53053960033.0,3.232,-9.146,0.732
625,625,2016-01-09 16:37:28.83,-0.699,-0.594,-0.191,53099400033.0,-3.415,2.256,-10.427
626,626,2016-01-09 16:37:28.87,-0.824,-0.526,-0.194,53108873939.0,4.756,8.72,-14.695
627,627,2016-01-09 16:37:28.91,-0.688,-0.477,-0.203,53150858729.0,17.134,-16.951,-5.305
628,628,2016-01-09 16:37:28.95,-0.878,-0.623,-0.256,53177923835.0,18.537,-15.61,2.744
629,629,2016-01-09 16:37:28.99,-0.888,-0.479,-0.188,53208480137.0,20.915,-29.451,9.695
630,630,2016-01-09 16:37:29.03,-0.908,-0.675,-0.21,53210998418.0,11.585,-33.537,23.476
631,631,2016-01-09 16:37:29.07,-0.82,-0.541,-0.278,53252708106.0,14.39,-44.39,21.951
632,632,2016-01-09 16:37:29.11,-0.901,-0.558,-0.285,53255268731.0,-2.988,-53.598,2.073
633,633,2016-01-09 16:37:29.15,-0.979,-0.565,-0.175,53302253520.0,-1.22,-46.28,-11.524
634,634,2016-01-09 16:37:29.19,-0.979,-0.511,-0.195,53305138208.0,-7.439,-26.707,0.488
635,635,2016-01-09 16:37:29.23,-1.005,-0.476,-0.125,53352186805.0,-16.646,-16.646,1.402
636,636,2016-01-09 16:37:29.27,-0.945,-0.515,-0.07,53355081545.0,-16.524,-29.268,3.963
637,637,2016-01-09 16:37:29.31,-0.894,-0.467,-0.061,53403467113.0,-15.0,-25.488,12.5
638,638,2016-01-09 16:37:29.35,-0.917,-0.469,-0.074,53410494510.0,-19.512,-17.805,3.659
639,639,2016-01-09 16:37:29.39,-0.915,-0.49,-0.125,53461873054.0,-22.317,3.232,2.988
640,640,2016-01-09 16:37:29.43,-0.974,-0.479,-0.164,53473772376.0,-16.28,3.598,3.72
641,641,2016-01-09 16:37:29.47,-0.965,-0.596,-0.181,53514251075.0,-10.549,3.963,-1.829
642,642,2016-01-09 16:37:29.51,-0.944,-0.602,-0.185,53525580710.0,9.695,6.951,-1.463
643,643,2016-01-09 16:37:29.59,-0.865,-0.546,-0.132,53564616074.0,16.463,-2.866,14.146
644,644,2016-01-09 16:37:29.63,-0.807,-0.493,-0.08,53575991230.0,11.89,-2.378,9.451
645,645,2016-01-09 16:37:29.67,-0.936,-0.535,-0.077,53719185605.0,8.049,0.305,0.793
646,646,2016-01-09 16:37:29.71,-0.875,-0.505,-0.108,53734624355.0,-1.098,19.634,2.683
647,647,2016-01-09 16:37:29.75,-0.885,-0.476,-0.066,53768957219.0,-9.817,22.378,-1.463
648,648,2016-01-09 16:37:29.79,-0.899,-0.441,-0.143,53786475605.0,-9.085,14.939,1.951
649,649,2016-01-09 16:37:29.83,-0.934,-0.472,-0.171,53817703521.0,-8.476,15.366,-0.671
650,650,2016-01-09 16:37:29.87,-0.873,-0.56,-0.247,53820221803.0,-8.476,14.146,-3.659
651,651,2016-01-09 16:37:29.91,-0.934,-0.502,-0.323,53899440813.0,-13.537,11.89,-4.695
652,652,2016-01-09 16:37:29.95,-1.009,-0.509,-0.322,53903803418.0,-19.512,4.756,-3.963
653,653,2016-01-09 16:37:29.99,-1.02,-0.517,-0.29,53949379876.0,-14.024,6.22,8.78
654,654,2016-01-09 16:37:30.03,-0.82,-0.433,-0.266,53953900970.0,-11.707,6.098,14.695
655,655,2016-01-09 16:37:30.07,-0.819,-0.451,-0.288,53999382531.0,-8.049,1.951,1.829
656,656,2016-01-09 16:37:30.11,-0.799,-0.504,-0.295,54003910397.0,-8.415,1.402,-4.085
657,657,2016-01-09 16:37:30.15,-0.833,-0.58,-0.311,54049381906.0,-14.878,-4.024,-10.122
658,658,2016-01-09 16:37:30.19,-0.907,-0.562,-0.294,54058246854.0,-9.207,-24.085,-5.061
659,659,2016-01-09 16:37:30.23,-0.885,-0.542,-0.207,54100885865.0,-4.146,-30.305,5.061
660,660,2016-01-09 16:37:30.27,-0.935,-0.521,-0.175,54117773886.0,4.878,-25.0,7.622
661,661,2016-01-09 16:37:30.30,-0.963,-0.457,-0.168,,,,
662,662,2016-01-09 16:37:30.35,-0.972,-0.527,-0.068,54173443626.0,13.537,-19.207,13.841
663,663,2016-01-09 16:37:30.39,-0.994,-0.466,-0.029,54201669302.0,15.671,-21.28,17.378
664,664,2016-01-09 16:37:30.42,-0.899,-0.394,-0.03,54226161855.0,6.524,-17.866,11.646
665,665,2016-01-09 16:37:30.47,-0.906,-0.445,0.052,54257079041.0,8.415,-13.354,-4.024
666,666,2016-01-09 16:37:30.50,-0.991,-0.405,0.015,54268774718.0,10.915,-10.122,-7.195
667,667,2016-01-09 16:37:30.54,-0.969,-0.456,-0.073,,,,
668,668,2016-01-09 16:37:30.58,-0.914,-0.507,-0.043,54318822011.0,4.39,-15.915,-1.829
669,669,2016-01-09 16:37:30.62,-1.01,-0.444,-0.045,54356685188.0,-8.841,-0.61,6.951
670,670,2016-01-09 16:37:30.66,-0.959,-0.367,-0.103,54370257323.0,-11.524,9.268,24.756
671,671,2016-01-09 16:37:30.70,-0.977,-0.372,-0.204,54413375084.0,-14.268,20.366,31.768
672,672,2016-01-09 16:37:30.74,-0.995,-0.489,-0.229,54426953886.0,-18.841,27.561,20.793
673,673,2016-01-09 16:37:30.78,-0.888,-0.493,-0.24,54464366125.0,-22.256,33.049,5.488
674,674,2016-01-09 16:37:30.82,-1.019,-0.426,-0.234,54475626594.0,-22.927,11.951,9.207
675,675,2016-01-09 16:37:30.86,-1.167,-0.342,-0.192,54513969980.0,-7.866,-5.793,13.72
676,676,2016-01-09 16:37:30.90,-1.241,-0.344,-0.071,54525268105.0,-1.585,-8.476,18.963
677,677,2016-01-09 16:37:30.94,-1.081,-0.376,0.065,54768701438.0,0.427,-19.939,24.573
678,678,2016-01-09 16:37:30.98,-0.741,-0.338,-0.064,54784120761.0,-4.756,-32.805,30.061
679,679,2016-01-09 16:37:31.02,-0.911,-0.362,0.055,54811600344.0,-4.207,-57.195,19.939
680,680,2016-01-09 16:37:31.06,-0.792,-0.317,0.039,54813472740.0,7.866,-88.11,20.183
681,681,2016-01-09 16:37:31.10,-0.783,-0.354,0.024,54852275865.0,-1.463,-83.293,3.963
682,682,2016-01-09 16:37:31.14,-0.998,-0.446,0.109,54855221230.0,11.707,-89.329,-10.671
683,683,2016-01-09 16:37:31.18,-0.972,-0.369,0.117,54902284041.0,5.61,-58.537,-7.622
684,684,2016-01-09 16:37:31.22,-0.955,-0.347,0.063,54905204719.0,-6.159,-12.012,-5.549
685,685,2016-01-09 16:37:31.26,-1.082,-0.448,0.093,54952179301.0,3.659,16.28,-15.671
686,686,2016-01-09 16:37:31.34,-1.056,-0.325,-0.003,54955164667.0,7.378,35.793,-10.549
687,687,2016-01-09 16:37:31.38,-1.016,-0.308,0.005,55002277114.0,0.915,51.951,-6.89
688,688,2016-01-09 16:37:31.42,-1.052,-0.353,-0.034,55012856229.0,7.012,42.927,-1.89
689,689,2016-01-09 16:37:31.46,-0.977,-0.369,-0.078,55063482116.0,-2.073,17.439,0.793
690,690,2016-01-09 16:37:31.50,-0.967,-0.313,-0.127,55073853261.0,-11.829,15.854,11.037
691,691,2016-01-09 16:37:31.54,-0.983,-0.287,-0.159,55114501489.0,-10.976,19.756,12.561
692,692,2016-01-09 16:37:31.58,-1.045,-0.365,-0.104,55125946125.0,-10.488,25.122,7.5
693,693,2016-01-09 16:37:31.62,-1.075,-0.295,-0.168,55164094459.0,-13.11,26.951,12.195
694,694,2016-01-09 16:37:31.66,-1.046,-0.228,-0.21,55175658678.0,-15.61,33.72,14.573
695,695,2016-01-09 16:37:31.70,-1.014,-0.27,-0.2,55214666334.0,-7.5,32.988,15.915
696,696,2016-01-09 16:37:31.74,-1.033,-0.308,-0.152,55226360605.0,-5.915,21.585,6.159
697,697,2016-01-09 16:37:31.78,-1.005,-0.348,-0.135,55264481905.0,-11.646,9.207,-5.61
698,698,2016-01-09 16:37:31.82,-1.037,-0.351,-0.156,55276095344.0,-7.805,6.768,-7.805
699,699,2016-01-09 16:37:31.86,-1.082,-0.372,-0.059,55313224667.0,-6.28,1.098,-4.207
700,700,2016-01-09 16:37:31.90,-1.03,-0.31,-0.039,55351605604.0,-2.256,-7.439,-1.707
701,701,2016-01-09 16:37:31.94,-0.981,-0.32,0.064,55376453364.0,6.646,-19.39,3.11
702,702,2016-01-09 16:37:31.98,-0.951,-0.313,0.072,55410016541.0,14.878,-40.183,2.622
703,703,2016-01-09 16:37:32.02,-1.026,-0.218,-0.003,55456769406.0,12.073,-46.89,-8.293
704,704,2016-01-09 16:37:32.06,-1.036,-0.282,0.003,55459703833.0,8.476,-36.22,-11.341
705,705,2016-01-09 16:37:32.10,-1.018,-0.307,0.017,55462435917.0,10.915,-22.134,-12.5
706,706,2016-01-09 16:37:32.14,-1.02,-0.33,0.061,55499441020.0,11.524,-30.976,-5.732
707,707,2016-01-09 16:37:32.18,-1.003,-0.327,0.088,55515679823.0,14.695,-27.073,5.0
708,708,2016-01-09 16:37:32.21,-0.957,-0.265,0.027,55649392375.0,9.878,-21.707,3.78
709,709,2016-01-09 16:37:32.26,-1.075,-0.327,0.014,55656116386.0,4.512,-15.244,-3.171
710,710,2016-01-09 16:37:32.29,-1.055,-0.438,0.023,55700086593.0,4.085,-7.012,1.585
711,711,2016-01-09 16:37:32.33,-0.961,-0.39,0.062,55715842427.0,2.927,1.341,5.915
712,712,2016-01-09 16:37:32.37,-0.969,-0.374,0.13,,,,
713,713,2016-01-09 16:37:32.41,-0.992,-0.275,0.083,55786329145.0,-4.207,-0.183,-2.195
714,714,2016-01-09 16:37:32.45,-0.96,-0.349,0.114,55811514561.0,-7.805,10.854,-9.207
715,715,2016-01-09 16:37:32.49,-0.942,-0.409,0.104,55813250239.0,-5.305,12.073,-5.732
716,716,2016-01-09 16:37:32.53,-0.962,-0.337,0.016,55852256124.0,-5.305,13.78,14.39
717,717,2016-01-09 16:37:32.57,-0.958,-0.35,0.04,55855210344.0,-7.622,15.305,31.829
718,718,2016-01-09 16:37:32.61,-1.034,-0.327,0.009,55902251385.0,-3.598,21.098,24.817
719,719,2016-01-09 16:37:32.65,-1.093,-0.271,-0.055,55905231646.0,-6.341,25.122,12.988
720,720,2016-01-09 16:37:32.69,-1.092,-0.233,-0.128,55952336019.0,-9.634,32.561,10.671
721,721,2016-01-09 16:37:32.73,-1.031,-0.237,-0.185,55955374770.0,-12.378,39.756,9.573
722,722,2016-01-09 16:37:32.77,-0.973,-0.184,-0.213,56002245656.0,-10.549,43.659,4.939
723,723,2016-01-09 16:37:32.81,-0.931,-0.188,-0.181,56012754719.0,-7.134,34.756,0.122
724,724,2016-01-09 16:37:32.85,-1.009,-0.245,-0.222,56063513522.0,-4.817,26.463,4.512
725,725,2016-01-09 16:37:32.89,-1.104,-0.23,-0.331,56075396386.0,-7.317,13.415,6.402
726,726,2016-01-09 16:37:32.93,-1.109,-0.248,-0.384,56114239824.0,-8.354,27.378,0.122
727,727,2016-01-09 16:37:32.97,-1.049,-0.256,-0.414,56125592219.0,-11.037,63.659,-11.768
728,728,2016-01-09 16:37:33.01,-1.012,-0.324,-0.371,56211621854.0,-14.085,73.11,-10.671
729,729,2016-01-09 16:37:33.09,-1.037,-0.208,-0.294,56228413574.0,-14.573,50.671,-1.646
730,730,2016-01-09 16:37:33.13,-0.993,-0.239,-0.183,56252725292.0,-17.195,17.683,3.232
731,731,2016-01-09 16:37:33.17,-0.963,-0.243,-0.125,56262203417.0,0.61,-8.354,7.073
732,732,2016-01-09 16:37:33.21,-0.966,-0.218,-0.13,56299353051.0,16.037,-44.756,5.61
733,733,2016-01-09 16:37:33.25,-0.994,-0.225,-0.151,56399311749.0,15.183,-34.146,0.122
734,734,2016-01-09 16:37:33.29,-1.025,-0.237,-0.178,56403893312.0,12.439,-18.72,-3.049
735,735,2016-01-09 16:37:33.33,-1.05,-0.289,-0.172,56451208468.0,12.256,-4.939,-5.854
736,736,2016-01-09 16:37:33.37,-1.035,-0.323,-0.193,56469520708.0,16.159,0.244,-4.146
737,737,2016-01-09 16:37:33.41,-1.021,-0.32,-0.14,56501841854.0,19.024,-4.146,-1.402
738,738,2016-01-09 16:37:33.45,-1.025,-0.282,-0.12,56535857010.0,18.659,-11.463,-0.183
739,739,2016-01-09 16:37:33.49,-1.008,-0.263,-0.164,56559812270.0,14.573,-7.073,-0.183
740,740,2016-01-09 16:37:33.53,-1.002,-0.263,-0.164,56649843936.0,5.915,-3.72,-0.488
741,741,2016-01-09 16:37:33.57,-0.998,-0.268,-0.21,56653840916.0,0.854,-0.549,-0.183
742,742,2016-01-09 16:37:33.61,-1.045,-0.262,-0.262,56699572426.0,-3.293,3.415,-1.463
743,743,2016-01-09 16:37:33.65,-1.046,-0.283,-0.224,56703883832.0,-9.634,7.622,0.61
744,744,2016-01-09 16:37:33.69,-0.951,-0.277,-0.226,56749363259.0,-13.963,15.793,-2.866
745,745,2016-01-09 16:37:33.73,-1.041,-0.289,-0.257,56756243051.0,-17.927,16.463,-1.463
746,746,2016-01-09 16:37:33.77,-1.118,-0.241,-0.293,56801261176.0,-15.122,8.476,-4.024
747,747,2016-01-09 16:37:33.81,-1.08,-0.265,-0.276,56818716384.0,-5.244,9.512,-16.463
748,748,2016-01-09 16:37:33.84,-1.041,-0.349,-0.207,56902213311.0,5.183,0.488,-17.683
749,749,2016-01-09 16:37:33.89,-1.041,-0.318,-0.151,56909543155.0,4.146,-18.841,-8.72
750,750,2016-01-09 16:37:33.93,-1.076,-0.3,-0.111,56949426384.0,0.671,-40.976,-7.866
751,751,2016-01-09 16:37:33.97,-1.03,-0.302,0.011,56958217426.0,8.11,-51.463,-13.841
752,752,2016-01-09 16:37:34.01,-0.922,-0.296,0.085,56999335395.0,17.256,-51.463,-16.768
753,753,2016-01-09 16:37:34.04,-0.897,-0.293,0.107,57004046436.0,24.512,-57.744,-18.598
754,754,2016-01-09 16:37:34.08,-1.015,-0.305,0.15,57052432583.0,26.707,-61.341,-16.28
755,755,2016-01-09 16:37:34.12,-0.982,-0.314,0.139,57054990760.0,21.22,-49.878,-13.293
756,756,2016-01-09 16:37:34.16,-0.953,-0.368,0.16,57103686645.0,16.524,-50.671,-21.28
757,757,2016-01-09 16:37:34.20,-0.992,-0.402,0.164,57110870238.0,15.0,-53.78,-21.707
758,758,2016-01-09 16:37:34.24,-0.963,-0.422,0.182,57161671333.0,8.476,-41.28,-16.341
759,759,2016-01-09 16:37:34.28,-0.944,-0.422,0.217,57175873937.0,4.451,-34.695,-17.256
760,760,2016-01-09 16:37:34.32,-0.946,-0.377,0.242,57216936489.0,4.329,-31.098,-16.951
761,761,2016-01-09 16:37:34.36,-0.954,-0.348,0.246,57228237427.0,4.207,-18.902,-17.744
762,762,2016-01-09 16:37:34.40,-0.965,-0.312,0.28,57265308729.0,6.768,-14.695,-22.622
763,763,2016-01-09 16:37:34.44,-0.896,-0.345,0.32,57276840656.0,5.183,-19.268,-27.073
764,764,2016-01-09 16:37:34.48,-0.884,-0.449,0.301,57315656176.0,4.634,-20.061,-29.939
765,765,2016-01-09 16:37:34.52,-0.886,-0.484,0.312,57327274249.0,2.988,-18.963,-24.878
766,766,2016-01-09 16:37:34.56,-0.896,-0.507,0.296,57364127843.0,-3.476,-9.878,-22.561
767,767,2016-01-09 16:37:34.60,-0.894,-0.514,0.29,57375849875.0,-2.866,-5.244,-22.073
768,768,2016-01-09 16:37:34.64,-0.89,-0.557,0.275,57415501906.0,-2.439,-7.744,-16.159
769,769,2016-01-09 16:37:34.68,-0.858,-0.588,0.292,57427198625.0,-3.598,-10.549,-15.061
770,770,2016-01-09 16:37:34.72,-0.844,-0.576,0.303,57464191177.0,-4.817,-11.159,-14.024
771,771,2016-01-09 16:37:34.76,-0.808,-0.511,0.299,57475732739.0,-1.707,-6.22,-7.439
772,772,2016-01-09 16:37:34.84,-0.842,-0.572,0.32,57620550396.0,-5.366,-6.646,-4.939
773,773,2016-01-09 16:37:34.88,-0.833,-0.588,0.337,57636096229.0,-1.646,-6.341,-6.22
774,774,2016-01-09 16:37:34.92,-0.854,-0.537,0.292,57663185395.0,-1.585,-14.39,-3.293
775,775,2016-01-09 16:37:34.96,-0.821,-0.521,0.285,57666180760.0,-2.988,-12.622,-1.829
776,776,2016-01-09 16:37:35.00,-0.793,-0.523,0.362,57702748677.0,1.037,-12.988,-4.939
777,777,2016-01-09 16:37:35.04,-0.826,-0.529,0.386,57705350239.0,-7.012,-20.244,-3.841
778,778,2016-01-09 16:37:35.08,-0.869,-0.512,0.37,57752188936.0,-9.939,-16.524,2.195
779,779,2016-01-09 16:37:35.12,-0.853,-0.507,0.354,57755109093.0,-10.427,-7.195,5.183
780,780,2016-01-09 16:37:35.16,-0.838,-0.562,0.321,57802110395.0,-15.183,9.756,8.72
781,781,2016-01-09 16:37:35.24,-0.958,-0.582,0.25,57805046957.0,-23.902,21.28,16.646
782,782,2016-01-09 16:37:35.28,-0.987,-0.594,0.219,57852186436.0,-35.061,31.524,7.073
783,783,2016-01-09 16:37:35.32,-0.982,-0.597,0.246,57860230760.0,-42.073,40.0,-7.866
784,784,2016-01-09 16:37:35.36,-0.919,-0.504,0.085,57913390135.0,-44.939,46.28,-21.768
785,785,2016-01-09 16:37:35.40,-0.952,-0.629,0.071,57925025239.0,-44.329,38.78,-29.451
786,786,2016-01-09 16:37:35.44,-0.919,-0.605,-0.013,57963067166.0,-35.183,32.805,-29.817
787,787,2016-01-09 16:37:35.48,-0.967,-0.544,-0.093,58001552739.0,-40.488,25.976,-28.78
788,788,2016-01-09 16:37:35.52,-0.92,-0.597,-0.137,58027965083.0,-44.024,27.683,-25.976
789,789,2016-01-09 16:37:35.56,-0.906,-0.597,-0.158,58059923416.0,-40.915,43.049,-30.549
790,790,2016-01-09 16:37:35.60,-0.895,-0.549,-0.235,58076852166.0,-45.976,35.61,-31.768
791,791,2016-01-09 16:37:35.64,-0.843,-0.54,-0.251,58107872322.0,-52.561,32.5,-37.988
792,792,2016-01-09 16:37:35.68,-0.77,-0.581,-0.194,58128423104.0,-62.866,35.915,-37.683
793,793,2016-01-09 16:37:35.71,-0.73,-0.591,-0.231,58156907531.0,-64.695,32.988,-40.183
794,794,2016-01-09 16:37:35.75,-0.637,-0.615,-0.259,,,,
795,795,2016-01-09 16:37:35.80,-0.563,-0.628,-0.35,58202127946.0,-67.805,37.683,-51.402
796,796,2016-01-09 16:37:35.83,-0.646,-0.676,-0.477,58205132633.0,-65.793,49.329,-53.415
797,797,2016-01-09 16:37:35.87,-0.537,-0.671,-0.539,58252189351.0,-58.598,52.317,-56.037
798,798,2016-01-09 16:37:35.91,-0.434,-0.668,-0.583,58255150029.0,-47.439,53.354,-54.756
799,799,2016-01-09 16:37:35.95,-0.372,-0.698,-0.673,58302150240.0,-36.098,50.183,-41.098
800,800,2016-01-09 16:37:35.99,-0.439,-0.738,-0.696,58305080761.0,-27.317,52.622,-35.976
801,801,2016-01-09 16:37:36.03,-0.437,-0.694,-0.622,58352220341.0,-25.671,50.671,-34.817
802,802,2016-01-09 16:37:36.07,-0.331,-0.534,-0.701,58362645551.0,-19.329,60.305,-24.817
803,803,2016-01-09 16:37:36.11,-0.319,-0.577,-0.68,58416220187.0,-7.561,60.61,-29.512
804,804,2016-01-09 16:37:36.15,-0.381,-0.605,-0.642,58519825655.0,-1.098,61.951,-49.207
805,805,2016-01-09 16:37:36.19,-0.24,-0.588,-0.745,58533794718.0,-5.122,64.085,-47.134
806,806,2016-01-09 16:37:36.23,-0.17,-0.687,-0.708,58568852999.0,1.159,42.927,-42.744
807,807,2016-01-09 16:37:36.27,-0.104,-0.74,-0.658,58584427218.0,6.951,24.146,-46.159
808,808,2016-01-09 16:37:36.31,-0.058,-0.753,-0.646,58621778989.0,1.646,14.695,-51.159
809,809,2016-01-09 16:37:36.35,-0.092,-0.792,-0.644,58637646124.0,1.707,5.427,-62.622
810,810,2016-01-09 16:37:36.39,-0.04,-0.796,-0.647,58659441541.0,5.244,6.89,-68.72
811,811,2016-01-09 16:37:36.43,0.015,-0.796,-0.588,58662053832.0,11.402,9.939,-67.622
812,812,2016-01-09 16:37:36.47,0.043,-0.785,-0.55,58702257581.0,12.012,4.695,-67.439
813,813,2016-01-09 16:37:36.51,0.097,-0.746,-0.549,58705174145.0,8.963,1.28,-66.646
814,814,2016-01-09 16:37:36.55,0.087,-0.74,-0.545,58752158207.0,2.622,-0.854,-63.841
815,815,2016-01-09 16:37:36.59,0.11,-0.804,-0.526,58755102686.0,1.524,-1.646,-62.256
816,816,2016-01-09 16:37:36.63,0.16,-0.775,-0.566,58802250497.0,-0.122,3.11,-58.659
817,817,2016-01-09 16:37:36.67,0.151,-0.765,-0.562,58805117216.0,-2.439,9.085,-56.768
818,818,2016-01-09 16:37:36.71,0.18,-0.77,-0.572,58852178156.0,2.988,13.537,-54.573
819,819,2016-01-09 16:37:36.75,0.263,-0.719,-0.587,58862520604.0,4.085,12.744,-51.22
820,820,2016-01-09 16:37:36.79,0.271,-0.711,-0.56,58913431488.0,-0.793,7.5,-48.902
821,821,2016-01-09 16:37:36.83,0.322,-0.654,-0.573,58924822998.0,-1.037,6.037,-45.0
822,822,2016-01-09 16:37:36.87,0.324,-0.627,-0.604,58964402426.0,-6.22,4.024,-42.012
823,823,2016-01-09 16:37:36.91,0.352,-0.648,-0.591,58976135238.0,-8.902,0.366,-39.878
824,824,2016-01-09 16:37:36.95,0.384,-0.608,-0.62,59014034093.0,-12.256,-0.244,-38.841
825,825,2016-01-09 16:37:36.99,0.402,-0.594,-0.64,59026920968.0,-15.732,-0.183,-38.963
826,826,2016-01-09 16:37:37.03,0.455,-0.597,-0.614,59064527634.0,-15.366,1.951,-40.366
827,827,2016-01-09 16:37:37.07,0.445,-0.581,-0.632,59076120811.0,-12.317,2.195,-40.122
828,828,2016-01-09 16:37:37.11,0.474,-0.561,-0.649,59114111176.0,-9.817,-0.427,-33.78
829,829,2016-01-09 16:37:37.15,0.473,-0.524,-0.661,59127024196.0,-7.927,-2.744,-30.61
830,830,2016-01-09 16:37:37.19,0.452,-0.524,-0.664,59164399717.0,-5.366,-8.049,-27.317
831,831,2016-01-09 16:37:37.23,0.47,-0.534,-0.646,59175933103.0,-2.805,-4.817,-22.805
832,832,2016-01-09 16:37:37.27,0.464,-0.518,-0.662,59215764717.0,-1.037,-6.646,-17.988
833,833,2016-01-09 16:37:37.30,0.451,-0.533,-0.649,,,,
834,834,2016-01-09 16:37:37.35,0.457,-0.523,-0.637,59259772373.0,1.524,-4.817,-8.841
835,835,2016-01-09 16:37:37.39,0.437,-0.519,-0.636,59399178049.0,5.244,-5.061,-5.61
836,836,2016-01-09 16:37:37.43,0.446,-0.547,-0.642,59403844768.0,5.183,-4.939,-3.841
837,837,2016-01-09 16:37:03.82,,,,34355463738.0,2.988,0.793,6.951
838,838,2016-01-09 16:37:04.06,,,,34503167957.0,6.646,-0.183,4.634
839,839,2016-01-09 16:37:05.65,,,,35753033113.0,-0.305,0.549,-1.463
840,840,2016-01-09 16:37:07.44,,,,37008384049.0,-1.89,-0.854,-0.732
841,841,2016-01-09 16:37:09.27,,,,38399692224.0,29.695,-32.256,32.195
842,842,2016-01-09 16:37:10.82,,,,39477631131.0,24.634,-23.902,4.329
843,843,2016-01-09 16:37:11.10,,,,39664690193.0,14.146,42.012,20.915
844,844,2016-01-09 16:37:12.89,,,,41299686704.0,-9.573,-36.22,-0.976
845,845,2016-01-09 16:37:14.48,,,,42353351495.0,-5.061,11.646,17.561
846,846,2016-01-09 16:37:16.27,,,,43661782170.0,4.085,11.951,-2.073
847,847,2016-01-09 16:37:18.10,,,,45002285816.0,-2.561,-4.024,2.012
848,848,2016-01-09 16:37:19.93,,,,46552303525.0,-24.146,34.085,26.28
849,849,2016-01-09 16:37:21.48,,,,47555151128.0,17.622,-19.146,-14.939
850,850,2016-01-09 16:37:23.55,,,,49199499199.0,3.902,16.341,11.524
851,851,2016-01-09 16:37:26.93,,,,51596076439.0,-61.159,-9.268,-30.0
852,852,2016-01-09 16:37:28.48,,,,52826072689.0,-71.463,80.793,-60.0
853,853,2016-01-09 16:37:30.31,,,,54160108261.0,10.793,-16.524,13.11
854,854,2016-01-09 16:37:30.55,,,,54301484198.0,7.256,-18.11,-6.098
855,855,2016-01-09 16:37:32.38,,,,55770582999.0,-2.317,-4.146,2.195
856,856,2016-01-09 16:37:35.76,,,,58160266801.0,-66.646,29.573,-47.317
857,857,2016-01-09 16:37:37.31,,,,59246191176.0,-0.915,-6.159,-12.5
858,0,2016-01-09 16:39:48.21,-0.04,-0.948,0.207,,,,
859,1,2016-01-09 16:39:48.25,-0.037,-0.961,0.209,29883817904.0,3.415,1.098,-0.183
860,2,2016-01-09 16:39:48.29,-0.036,-0.953,0.207,29888094727.0,0.244,-0.915,0.122
861,3,2016-01-09 16:39:48.33,-0.037,-0.953,0.217,30030132904.0,-0.305,-1.402,0.061
862,4,2016-01-09 16:39:48.37,-0.036,-0.954,0.204,30033674102.0,0.0,0.366,0.122
863,5,2016-01-09 16:39:48.41,-0.043,-0.959,0.207,30078793321.0,-0.549,1.646,0.549
864,6,2016-01-09 16:39:48.45,-0.035,-0.952,0.212,30082489831.0,-2.073,1.89,0.244
865,7,2016-01-09 16:39:48.48,-0.04,-0.955,0.21,30127649675.0,-3.841,1.89,-0.183
866,8,2016-01-09 16:39:48.53,-0.037,-0.957,0.201,30132023217.0,-1.646,1.402,0.183
867,9,2016-01-09 16:39:48.57,-0.048,-0.958,0.197,30176312175.0,-2.439,1.463,0.61
868,10,2016-01-09 16:39:48.60,-0.051,-0.959,0.196,30179344883.0,-2.317,1.22,0.793
869,11,2016-01-09 16:39:48.65,-0.043,-0.958,0.194,30224783113.0,-2.622,3.293,0.915
870,12,2016-01-09 16:39:48.68,-0.047,-0.961,0.197,30227820821.0,-2.622,5.061,-0.915
871,13,2016-01-09 16:39:48.72,-0.046,-0.964,0.198,30322461029.0,-1.646,6.951,-2.012
872,14,2016-01-09 16:39:48.76,-0.051,-0.965,0.22,30325381706.0,-1.951,7.195,-3.354
873,15,2016-01-09 16:39:48.80,-0.049,-0.977,0.197,,,,
874,16,2016-01-09 16:39:48.88,-0.022,-0.949,0.225,30422849935.0,-0.305,3.598,-5.976
875,17,2016-01-09 16:39:48.92,-0.043,-0.949,0.184,30468542956.0,2.134,2.256,-4.512
876,18,2016-01-09 16:39:48.96,-0.026,-0.954,0.197,30471680508.0,3.415,5.061,3.78
877,19,2016-01-09 16:39:49.00,-0.021,-0.985,0.206,30517413060.0,7.012,4.512,6.829
878,20,2016-01-09 16:39:49.00,-0.021,-0.985,0.206,31201972383.0,25.427,-13.537,1.585
879,21,2016-01-09 16:39:49.00,-0.001,-0.804,0.562,30517413060.0,7.012,4.512,6.829
880,22,2016-01-09 16:39:49.00,-0.001,-0.804,0.562,31201972383.0,25.427,-13.537,1.585
881,23,2016-01-09 16:39:49.04,-0.062,-0.96,0.205,30520576706.0,-2.134,5.61,-0.122
882,24,2016-01-09 16:39:49.08,-0.071,-0.94,0.242,30566073946.0,8.841,10.671,-2.683
883,25,2016-01-09 16:39:49.12,-0.07,-0.946,0.255,30570814050.0,15.427,17.439,-1.341
884,26,2016-01-09 16:39:49.16,-0.047,-0.951,0.254,30614784102.0,10.976,12.805,0.305
885,27,2016-01-09 16:39:49.20,-0.057,-0.943,0.26,30619376498.0,14.024,7.805,4.146
886,28,2016-01-09 16:39:49.24,-0.094,-0.943,0.264,30663524779.0,12.561,11.768,6.89
887,29,2016-01-09 16:39:49.28,-0.133,-0.932,0.31,30667523685.0,9.756,19.329,5.549
888,30,2016-01-09 16:39:49.32,-0.074,-0.931,0.314,30712460456.0,8.476,23.963,7.683
889,31,2016-01-09 16:39:49.36,-0.075,-0.95,0.321,30717044414.0,12.744,22.5,5.122
890,32,2016-01-09 16:39:49.40,-0.098,-0.924,0.351,30761046758.0,20.732,10.61,-0.732
891,33,2016-01-09 16:39:49.44,-0.086,-0.901,0.361,30860642591.0,21.585,8.232,-1.646
892,34,2016-01-09 16:39:49.48,-0.068,-0.902,0.353,30907581289.0,23.049,0.427,-4.695
893,35,2016-01-09 16:39:49.52,-0.031,-0.864,0.367,30911760144.0,16.829,-4.939,-5.305
894,36,2016-01-09 16:39:49.56,-0.029,-0.86,0.401,30956473529.0,11.585,-2.561,1.159
895,37,2016-01-09 16:39:49.60,-0.062,-0.939,0.411,30961756550.0,11.707,0.732,5.61
896,38,2016-01-09 16:39:49.64,-0.067,-0.909,0.367,31005349050.0,8.841,2.866,-2.378
897,39,2016-01-09 16:39:49.68,-0.138,-0.883,0.415,31008928529.0,17.622,10.061,-10.549
898,40,2016-01-09 16:39:49.72,-0.127,-0.888,0.436,31057152591.0,33.841,20.122,-15.183
899,41,2016-01-09 16:39:49.76,-0.135,-0.903,0.474,31060430143.0,30.244,24.573,-11.463
900,42,2016-01-09 16:39:49.80,-0.135,-0.911,0.458,31104299467.0,25.915,10.61,-13.049
901,43,2016-01-09 16:39:49.84,-0.101,-0.865,0.43,31106918737.0,24.573,0.488,-13.171
902,44,2016-01-09 16:39:49.88,-0.107,-0.877,0.487,31152829883.0,25.244,-3.963,-12.195
903,45,2016-01-09 16:39:49.96,-0.052,-0.817,0.549,31155306602.0,22.927,-7.012,-5.061
904,46,2016-01-09 16:39:50.04,0.044,-0.766,0.519,31204425925.0,27.622,-20.427,1.707
905,47,2016-01-09 16:39:50.08,0.036,-0.77,0.596,31250419414.0,28.049,-21.707,3.476
906,48,2016-01-09 16:39:50.12,0.015,-0.761,0.599,31253080352.0,27.195,-22.073,5.732
907,49,2016-01-09 16:39:50.16,0.0,-0.707,0.62,31299382591.0,37.988,-17.012,6.646
908,50,2016-01-09 16:39:50.20,-0.019,-0.738,0.68,31302063165.0,47.561,-7.195,5.793
909,51,2016-01-09 16:39:50.24,0.031,-0.748,0.706,31348146446.0,40.0,-0.671,-5.0
910,52,2016-01-09 16:39:50.28,0.026,-0.724,0.743,31350594883.0,39.573,-3.354,-3.78
911,53,2016-01-09 16:39:50.32,0.021,-0.68,0.764,31396923633.0,37.866,-3.659,0.183
912,54,2016-01-09 16:39:50.35,0.025,-0.651,0.74,,,,
913,55,2016-01-09 16:39:50.40,-0.006,-0.652,0.782,31494034623.0,39.695,-12.317,3.78
914,56,2016-01-09 16:39:50.43,-0.012,-0.636,0.778,31497041654.0,30.976,-15.305,2.988
915,57,2016-01-09 16:39:50.47,0.09,-0.626,0.799,31542903217.0,26.585,-11.524,1.707
916,58,2016-01-09 16:39:50.51,0.099,-0.647,0.786,31545435769.0,36.585,-18.171,-0.854
917,59,2016-01-09 16:39:50.55,0.098,-0.587,0.872,31591111550.0,28.963,-32.256,-8.049
918,60,2016-01-09 16:39:50.59,0.124,-0.53,0.884,31594083060.0,26.098,-40.122,-7.073
919,61,2016-01-09 16:39:50.63,0.157,-0.512,0.836,31640813789.0,35.976,-38.415,-7.805
920,62,2016-01-09 16:39:50.67,0.139,-0.591,0.905,31645555508.0,43.598,-40.244,-8.537
921,63,2016-01-09 16:39:50.71,0.115,-0.53,0.783,31785217019.0,35.122,-30.671,-5.122
922,64,2016-01-09 16:39:50.75,0.185,-0.461,0.881,31789821133.0,24.817,-17.683,1.524
923,65,2016-01-09 16:39:50.79,0.216,-0.51,0.89,31833581967.0,21.402,-12.744,3.598
924,66,2016-01-09 16:39:50.83,0.145,-0.397,0.786,31932935769.0,18.049,-5.61,-1.89
925,67,2016-01-09 16:39:50.87,0.146,-0.442,0.902,31935653894.0,28.78,6.646,-4.39
926,68,2016-01-09 16:39:50.91,0.133,-0.451,0.9,31982029154.0,30.915,20.732,-0.61
927,69,2016-01-09 16:39:50.95,0.155,-0.379,0.902,31984745039.0,32.256,22.561,1.341
928,70,2016-01-09 16:39:50.99,0.108,-0.415,0.974,32079115195.0,35.793,22.317,2.5
929,71,2016-01-09 16:39:51.03,0.042,-0.372,0.897,32082669362.0,24.817,23.841,-1.402
930,72,2016-01-09 16:39:51.07,0.008,-0.373,0.907,32129214310.0,25.976,32.439,-4.695
931,73,2016-01-09 16:39:51.11,-0.028,-0.398,0.953,32133106706.0,22.134,30.427,-6.159
932,74,2016-01-09 16:39:51.15,-0.015,-0.334,0.924,32177935508.0,20.366,32.683,1.098
933,75,2016-01-09 16:39:51.19,-0.066,-0.33,0.973,32223908373.0,26.463,32.012,-1.707
934,76,2016-01-09 16:39:51.23,-0.049,-0.341,0.971,32227621706.0,27.317,28.963,-0.915
935,77,2016-01-09 16:39:51.27,-0.046,-0.298,1.027,32272406602.0,26.037,24.024,1.037
936,78,2016-01-09 16:39:51.31,-0.051,-0.317,1.009,32325004362.0,24.756,18.476,1.463
937,79,2016-01-09 16:39:51.35,-0.039,-0.249,1.007,32328765716.0,21.646,13.902,1.341
938,80,2016-01-09 16:39:51.39,-0.054,-0.193,0.96,32371318685.0,27.744,11.768,-0.183
939,81,2016-01-09 16:39:51.47,-0.091,-0.216,1.013,32374028685.0,29.329,9.634,-2.805
940,82,2016-01-09 16:39:51.51,-0.126,-0.187,1.046,32421798008.0,33.659,12.378,-2.622
941,83,2016-01-09 16:39:51.55,-0.13,-0.169,1.032,32425436081.0,31.463,15.427,-1.646
942,84,2016-01-09 16:39:51.59,-0.115,-0.116,1.001,32470133164.0,37.439,17.256,-1.098
943,85,2016-01-09 16:39:51.63,-0.134,-0.063,0.989,32474355196.0,36.829,16.951,-2.195
944,86,2016-01-09 16:39:51.67,-0.123,-0.048,1.069,32519050143.0,35.183,10.183,-2.012
945,87,2016-01-09 16:39:51.71,-0.101,-0.051,1.053,32529617435.0,34.878,7.073,-3.11
946,88,2016-01-09 16:39:51.75,-0.13,0.011,1.04,32566363008.0,34.329,4.146,-4.024
947,89,2016-01-09 16:39:51.79,-0.145,0.029,1.055,32568148893.0,34.024,9.268,-4.939
948,90,2016-01-09 16:39:51.83,-0.132,0.047,1.053,32616220873.0,34.756,16.098,-5.061
949,91,2016-01-09 16:39:51.87,-0.163,0.085,1.034,32619118841.0,40.976,15.549,-5.793
950,92,2016-01-09 16:39:51.91,-0.172,0.161,0.994,32665026758.0,36.768,14.817,-5.244
951,93,2016-01-09 16:39:51.95,-0.183,0.161,1.03,32667697279.0,38.293,13.841,-4.512
952,94,2016-01-09 16:39:51.99,-0.171,0.189,1.014,32714444934.0,40.366,13.11,-5.122
953,95,2016-01-09 16:39:52.03,-0.196,0.225,0.983,32857075247.0,37.561,13.902,-8.415
954,96,2016-01-09 16:39:52.07,-0.202,0.26,0.947,32908747744.0,29.329,14.695,-5.915
955,97,2016-01-09 16:39:52.10,-0.185,0.257,0.977,32915471235.0,28.476,12.561,-3.78
956,98,2016-01-09 16:39:52.14,-0.125,0.238,1.045,32973749987.0,12.134,6.037,-4.756
957,99,2016-01-09 16:39:52.18,-0.144,0.148,0.958,32990800455.0,1.28,8.78,-11.585
958,100,2016-01-09 16:39:52.23,-0.204,0.199,0.991,33017090663.0,-8.476,8.78,-14.878
959,101,2016-01-09 16:39:52.27,-0.228,0.127,0.964,33019750507.0,-21.22,18.049,-14.085
960,102,2016-01-09 16:39:52.30,-0.245,0.165,1.03,33054175715.0,-30.915,25.305,-5.183
961,103,2016-01-09 16:39:52.34,-0.253,0.156,1.019,33103781185.0,-3.659,34.756,-1.159
962,104,2016-01-09 16:39:52.38,-0.308,0.124,0.945,33106434518.0,-6.098,35.122,1.22
963,105,2016-01-09 16:39:52.42,-0.351,0.105,0.895,33152642800.0,1.463,37.439,2.5
964,106,2016-01-09 16:39:52.46,-0.364,0.161,0.932,33155351394.0,3.11,39.39,7.073
965,107,2016-01-09 16:39:52.50,-0.397,0.144,0.878,33201425714.0,-0.976,40.244,7.317
966,108,2016-01-09 16:39:52.54,-0.464,0.1,0.83,33204135818.0,0.305,48.537,2.012
967,109,2016-01-09 16:39:52.58,-0.541,0.058,0.782,33249847486.0,0.0,66.22,-3.11
968,110,2016-01-09 16:39:52.62,-0.62,0.079,0.822,33297278580.0,-6.89,76.037,2.256
969,111,2016-01-09 16:39:52.66,-0.68,0.093,0.782,33318598007.0,-6.402,76.463,6.646
970,112,2016-01-09 16:39:52.70,-0.865,0.093,0.826,33355610663.0,-5.183,81.951,4.512
971,113,2016-01-09 16:39:52.74,-0.933,0.091,0.825,33373134987.0,-1.951,77.439,-2.256
972,114,2016-01-09 16:39:52.78,-1.015,0.069,0.823,33396367070.0,-8.476,72.134,-19.268
973,115,2016-01-09 16:39:52.82,-0.976,0.014,0.683,33407845299.0,-3.354,68.902,-25.793
974,116,2016-01-09 16:39:52.86,-0.966,0.01,0.539,33442037538.0,0.61,56.768,-21.707
975,117,2016-01-09 16:39:52.90,-0.976,0.016,0.461,33446299986.0,-3.415,56.768,-15.61
976,118,2016-01-09 16:39:52.98,-0.916,0.051,0.497,33490752955.0,-3.293,52.988,-12.134
977,119,2016-01-09 16:39:53.02,-0.939,0.097,0.547,33495231757.0,3.78,40.732,-6.707
978,120,2016-01-09 16:39:53.06,-0.961,0.122,0.6,33539547850.0,19.756,28.841,-4.939
979,121,2016-01-09 16:39:53.10,-0.994,0.138,0.658,33544066028.0,25.854,9.39,-3.841
980,122,2016-01-09 16:39:53.14,-0.928,0.143,0.651,33588270560.0,23.841,3.72,-3.11
981,123,2016-01-09 16:39:53.18,-0.864,0.128,0.628,33592781185.0,22.073,-1.463,-2.378
982,124,2016-01-09 16:39:53.22,-0.808,0.126,0.632,33637020246.0,18.049,-11.22,-0.793
983,125,2016-01-09 16:39:53.26,-0.764,0.129,0.643,33644328527.0,13.171,-12.378,0.488
984,126,2016-01-09 16:39:53.30,-0.816,0.117,0.675,33687367017.0,10.0,-10.488,1.951
985,127,2016-01-09 16:39:53.34,-0.818,0.129,0.67,33801909466.0,9.268,-11.89,3.72
986,128,2016-01-09 16:39:53.38,-0.758,0.127,0.715,33818603111.0,6.159,-8.232,2.195
987,129,2016-01-09 16:39:53.42,-0.726,0.121,0.772,33848128684.0,3.78,-11.768,0.244
988,130,2016-01-09 16:39:53.46,-0.773,0.146,0.808,33850120247.0,1.951,-17.256,1.341
989,131,2016-01-09 16:39:53.50,-0.822,0.156,0.758,33883603997.0,1.646,-17.073,3.11
990,132,2016-01-09 16:39:53.54,-0.772,0.152,0.688,33886278789.0,3.902,-13.171,3.354
991,133,2016-01-09 16:39:53.58,-0.666,0.157,0.675,33932694622.0,5.244,-5.976,0.732
992,134,2016-01-09 16:39:53.62,-0.74,0.146,0.701,33935660039.0,2.012,4.39,-2.988
993,135,2016-01-09 16:39:53.66,-0.828,0.157,0.733,33981438735.0,0.793,4.39,-4.024
994,136,2016-01-09 16:39:53.70,-0.857,0.152,0.712,33984154360.0,-0.793,1.159,-2.073
995,137,2016-01-09 16:39:53.73,-0.839,0.145,0.687,,,,
996,138,2016-01-09 16:39:53.78,-0.819,0.139,0.685,34084969569.0,-0.976,1.585,-0.732
997,139,2016-01-09 16:39:53.82,-0.803,0.135,0.678,34138363060.0,-5.0,5.671,-1.89
998,140,2016-01-09 16:39:53.85,-0.791,0.126,0.677,34192651236.0,-5.488,8.354,-2.561
999,141,2016-01-09 16:39:53.90,-0.795,0.115,0.684,34208487069.0,-4.512,5.183,-2.805
1000,142,2016-01-09 16:39:53.93,-0.828,0.084,0.681,34236878736.0,-4.451,3.293,-1.28
1001,143,2016-01-09 16:39:53.97,-0.845,0.081,0.679,34239625715.0,-5.671,4.268,1.098
1002,144,2016-01-09 16:39:54.01,-0.869,0.092,0.681,34273614881.0,-5.732,2.744,-0.122
1003,145,2016-01-09 16:39:54.06,-0.868,0.116,0.681,34276272433.0,-8.659,2.256,-2.439
1004,146,2016-01-09 16:39:54.09,-0.81,0.125,0.694,34322468894.0,-7.927,1.524,-3.11
1005,147,2016-01-09 16:39:54.13,-0.837,0.132,0.655,34368294934.0,-7.378,1.646,-2.744
1006,148,2016-01-09 16:39:54.17,-0.793,0.122,0.667,34372900872.0,-2.622,-2.988,-3.598
1007,149,2016-01-09 16:39:54.21,-0.792,0.115,0.714,34417087330.0,-2.744,-3.049,-5.976
1008,150,2016-01-09 16:39:54.25,-0.774,0.118,0.721,34421729362.0,-2.439,-6.585,-2.988
1009,151,2016-01-09 16:39:54.29,-0.784,0.101,0.72,34467298163.0,-1.829,-8.72,0.793
1010,152,2016-01-09 16:39:54.33,-0.795,0.098,0.694,34482378268.0,-1.463,-8.598,-0.488
1011,153,2016-01-09 16:39:54.37,-0.784,0.076,0.718,34563373631.0,-0.854,-1.951,-0.305
1012,154,2016-01-09 16:39:54.41,-0.797,0.081,0.717,34567255923.0,-0.61,1.646,-1.341
1013,155,2016-01-09 16:39:54.49,-0.821,0.111,0.666,34615487330.0,-1.463,5.061,-2.5
1014,156,2016-01-09 16:39:54.53,-0.855,0.099,0.662,34618169049.0,-2.805,7.866,-2.195
1015,157,2016-01-09 16:39:54.57,-0.835,0.095,0.668,34664517746.0,-5.0,8.598,-4.573
1016,158,2016-01-09 16:39:54.61,-0.821,0.102,0.651,34667520611.0,-4.451,6.829,-5.976
1017,159,2016-01-09 16:39:54.65,-0.846,0.106,0.648,34936584673.0,-1.341,3.415,-6.463
1018,160,2016-01-09 16:39:54.73,-0.815,0.058,0.695,34939376287.0,-0.427,-0.122,-17.134
1019,161,2016-01-09 16:39:54.77,-0.749,0.038,0.724,34956308006.0,0.854,-0.305,-9.085
1020,162,2016-01-09 16:39:54.81,-0.784,0.057,0.73,34958921860.0,3.11,-6.098,5.976
1021,163,2016-01-09 16:39:54.85,-0.815,0.073,0.718,35004938267.0,1.707,-16.707,9.573
1022,164,2016-01-09 16:39:54.89,-0.787,0.079,0.729,35007560246.0,-0.305,-7.988,6.22
1023,165,2016-01-09 16:39:54.93,-0.786,0.075,0.738,35054118164.0,0.061,1.768,3.841
1024,166,2016-01-09 16:39:54.97,-0.77,0.087,0.708,35056889570.0,-1.829,2.5,0.549
1025,167,2016-01-09 16:39:55.01,-0.798,0.086,0.682,35101840872.0,-3.354,2.561,-1.098
1026,168,2016-01-09 16:39:55.05,-0.744,0.092,0.697,35155839048.0,-2.744,1.28,0.732
1027,169,2016-01-09 16:39:55.09,-0.762,0.131,0.703,35246781547.0,-1.829,2.134,2.561
1028,170,2016-01-09 16:39:55.13,-0.802,0.146,0.738,35267629726.0,1.646,-2.073,1.768
1029,171,2016-01-09 16:39:55.17,-0.815,0.143,0.753,35297749569.0,1.768,-3.659,-1.585
1030,172,2016-01-09 16:39:55.21,-0.838,0.099,0.715,35322636445.0,4.756,-0.427,-5.244
1031,173,2016-01-09 16:39:55.25,-0.796,0.086,0.713,35354444934.0,11.402,0.061,-5.0
1032,174,2016-01-09 16:39:55.29,-0.775,0.06,0.707,35357453528.0,2.256,0.183,-4.451
1033,175,2016-01-09 16:39:55.33,-0.773,0.046,0.702,35392028683.0,-3.902,-1.951,-4.695
1034,176,2016-01-09 16:39:55.37,-0.814,0.048,0.688,35396404568.0,-0.549,1.463,-5.183
1035,177,2016-01-09 16:39:55.41,-0.814,0.087,0.699,35440744360.0,-1.341,3.476,-4.024
1036,178,2016-01-09 16:39:55.45,-0.861,0.124,0.696,35445233423.0,-0.122,2.195,-5.183
1037,179,2016-01-09 16:39:55.49,-0.801,0.118,0.722,35489503631.0,3.354,4.756,-5.976
1038,180,2016-01-09 16:39:55.53,-0.767,0.133,0.712,35494172589.0,6.585,1.524,-1.646
1039,181,2016-01-09 16:39:55.57,-0.827,0.109,0.705,35587020194.0,7.866,-2.927,-1.402
1040,182,2016-01-09 16:39:55.61,-0.823,0.083,0.675,35593741131.0,4.146,-3.171,-3.354
1041,183,2016-01-09 16:39:55.65,-0.815,0.083,0.692,35649444464.0,-1.402,1.341,-2.866
1042,184,2016-01-09 16:39:55.69,-0.766,0.082,0.713,35662156496.0,-1.28,2.5,-1.22
1043,185,2016-01-09 16:39:55.72,-0.763,0.067,0.715,35699166808.0,-0.854,0.915,0.732
1044,186,2016-01-09 16:39:55.76,-0.773,0.1,0.732,35711248215.0,3.293,-2.012,3.963
1045,187,2016-01-09 16:39:55.80,-0.816,0.108,0.745,,,,
1046,188,2016-01-09 16:39:55.84,-0.799,0.127,0.745,35761602745.0,1.037,-7.378,2.378
1047,189,2016-01-09 16:39:55.88,-0.765,0.101,0.722,35796425870.0,1.585,-2.927,2.195
1048,190,2016-01-09 16:39:55.92,-0.751,0.106,0.694,35937420818.0,0.854,-1.585,4.878
1049,191,2016-01-09 16:39:55.96,-0.772,0.108,0.709,35956393163.0,-2.927,1.037,5.122
1050,192,2016-01-09 16:39:56.00,-0.817,0.106,0.713,35987248631.0,-6.829,4.512,2.988
1051,193,2016-01-09 16:39:56.00,-0.817,0.106,0.713,36712365298.0,-9.146,2.988,-2.561
1052,194,2016-01-09 16:39:56.00,-0.582,0.098,0.735,35987248631.0,-6.829,4.512,2.988
1053,195,2016-01-09 16:39:56.00,-0.582,0.098,0.735,36712365298.0,-9.146,2.988,-2.561
1054,196,2016-01-09 16:39:56.04,-0.797,0.091,0.719,35989080350.0,-5.976,6.585,-1.159
1055,197,2016-01-09 16:39:56.08,-0.819,0.059,0.705,36028770819.0,-3.902,6.829,-2.988
1056,198,2016-01-09 16:39:56.12,-0.859,0.08,0.675,36031804204.0,-4.817,3.293,-4.39
1057,199,2016-01-09 16:39:56.16,-0.83,0.092,0.709,36077556860.0,-4.451,0.854,-5.061
1058,200,2016-01-09 16:39:56.20,-0.808,0.098,0.702,36080176964.0,-4.512,1.768,-4.085
1059,201,2016-01-09 16:39:56.24,-0.798,0.116,0.695,36174957537.0,-3.598,4.634,-3.659
1060,202,2016-01-09 16:39:56.28,-0.795,0.064,0.668,36177666235.0,-1.22,-2.195,-6.768
1061,203,2016-01-09 16:39:56.32,-0.798,0.101,0.723,36230899621.0,-2.317,-7.622,-1.341
1062,204,2016-01-09 16:39:56.36,-0.756,0.124,0.752,36252867121.0,3.841,-11.22,1.463
1063,205,2016-01-09 16:39:56.40,-0.77,0.128,0.753,36291399413.0,5.183,-12.439,2.805
1064,206,2016-01-09 16:39:56.44,-0.74,0.121,0.795,36309803162.0,7.805,-17.134,2.805
1065,207,2016-01-09 16:39:56.48,-0.705,0.122,0.763,36436429933.0,5.427,-19.39,0.671
1066,208,2016-01-09 16:39:56.52,-0.72,0.111,0.747,36454384100.0,4.512,-18.841,-1.159
1067,209,2016-01-09 16:39:56.56,-0.723,0.127,0.759,36484729725.0,3.598,-19.634,-2.012
1068,210,2016-01-09 16:39:56.60,-0.736,0.116,0.774,36487269204.0,-0.732,-12.561,-0.793
1069,211,2016-01-09 16:39:56.64,-0.724,0.122,0.798,36516167849.0,1.951,-3.78,3.11
1070,212,2016-01-09 16:39:56.68,-0.698,0.082,0.799,36518861755.0,3.476,-6.707,4.878
1071,213,2016-01-09 16:39:56.72,-0.688,0.094,0.806,36564875611.0,-3.598,-10.0,6.707
1072,214,2016-01-09 16:39:56.76,-0.585,0.135,0.812,36567584517.0,0.366,-12.927,9.39
1073,215,2016-01-09 16:39:56.80,-0.605,0.175,0.76,36614103163.0,-5.671,-9.878,12.439
1074,216,2016-01-09 16:39:56.88,-0.978,0.048,0.794,36630176548.0,-6.524,-5.305,4.878
1075,217,2016-01-09 16:39:56.92,-0.84,0.122,0.792,36662887121.0,-10.732,5.244,-3.293
1076,218,2016-01-09 16:39:56.96,-0.692,0.126,0.796,36665508944.0,-11.098,27.927,-4.146
1077,219,2016-01-09 16:39:57.04,-0.579,0.122,0.709,36717563215.0,-6.098,-15.427,-1.707
1078,220,2016-01-09 16:39:57.08,-0.734,0.09,0.776,36766827745.0,-1.646,-20.427,-2.744
1079,221,2016-01-09 16:39:57.12,-0.872,0.068,0.796,36807997744.0,0.549,-15.854,-6.463
1080,222,2016-01-09 16:39:57.16,-0.766,0.1,0.786,36830294152.0,0.854,5.61,-1.159
1081,223,2016-01-09 16:39:57.20,-0.719,0.102,0.758,36897904621.0,0.671,14.207,-3.72
1082,224,2016-01-09 16:39:57.24,-0.707,0.099,0.756,37001688787.0,2.866,6.098,-3.537
1083,225,2016-01-09 16:39:57.28,-0.736,0.104,0.787,37005752016.0,1.89,-5.366,0.183
1084,226,2016-01-09 16:39:57.32,-0.741,0.11,0.764,37052540297.0,4.146,-8.049,-2.134
1085,227,2016-01-09 16:39:57.35,-0.723,0.132,0.79,,,,
1086,228,2016-01-09 16:39:57.40,-0.684,0.112,0.77,37211579725.0,5.976,-1.22,-4.024
1087,229,2016-01-09 16:39:57.43,-0.715,0.133,0.757,37227788631.0,16.28,-0.793,-0.976
1088,230,2016-01-09 16:39:57.47,-0.721,0.157,0.793,37265905350.0,17.927,-3.598,-2.134
1089,231,2016-01-09 16:39:57.52,-0.741,0.114,0.828,37281838163.0,-1.707,-3.171,-2.622
1090,232,2016-01-09 16:39:57.55,-0.716,0.101,0.832,37307474985.0,6.341,-5.183,-1.829
1091,233,2016-01-09 16:39:57.59,-0.665,0.145,0.787,37310165037.0,7.012,-7.683,-0.61
1092,234,2016-01-09 16:39:57.64,-0.633,0.189,0.785,37393778475.0,-2.012,-2.439,0.915
1093,235,2016-01-09 16:39:57.67,-0.666,0.158,0.808,37396447798.0,-1.524,-0.732,-2.073
1094,236,2016-01-09 16:39:57.71,-0.68,0.15,0.795,37442595038.0,5.549,-1.829,-4.207
1095,237,2016-01-09 16:39:57.75,-0.73,0.132,0.837,37445320402.0,7.439,-4.268,-7.073
1096,238,2016-01-09 16:39:57.79,-0.719,0.128,0.848,37491442954.0,0.732,-5.122,-8.11
1097,239,2016-01-09 16:39:57.83,-0.709,0.121,0.787,37494077537.0,-0.061,-2.683,-7.439
1098,240,2016-01-09 16:39:57.87,-0.636,0.144,0.747,37539778369.0,-0.122,-3.476,-6.951
1099,241,2016-01-09 16:39:57.91,-0.654,0.14,0.796,37546728162.0,-1.037,-1.768,-7.439
1100,242,2016-01-09 16:39:57.95,-0.697,0.144,0.832,37594422277.0,-0.976,-5.061,-9.329
1101,243,2016-01-09 16:39:57.99,-0.707,0.144,0.874,37652516340.0,0.732,-8.659,-7.195
1102,244,2016-01-09 16:39:58.03,-0.682,0.101,0.855,37670329412.0,0.793,-6.646,-3.171
1103,245,2016-01-09 16:39:58.07,-0.653,0.115,0.813,37697199048.0,0.488,-5.671,0.61
1104,246,2016-01-09 16:39:58.11,-0.681,0.1,0.802,37700435402.0,-4.695,-2.927,3.049
1105,247,2016-01-09 16:39:58.15,-0.615,0.086,0.812,37829451495.0,-9.634,-0.976,19.817
1106,248,2016-01-09 16:39:58.19,-0.654,0.08,0.823,37834119465.0,-10.488,-2.317,19.817
1107,249,2016-01-09 16:39:58.23,-0.586,-0.018,0.878,38027818527.0,-20.0,-3.963,3.476
1108,250,2016-01-09 16:39:58.27,-0.643,0.055,0.831,38052789256.0,-35.244,1.951,23.598
1109,251,2016-01-09 16:39:58.31,-0.761,0.033,0.86,38084386652.0,-98.049,4.756,33.354
1110,252,2016-01-09 16:39:58.35,-0.687,0.002,0.866,38087411131.0,-54.329,-4.817,32.073
1111,253,2016-01-09 16:39:58.39,-0.654,0.034,0.806,38122001651.0,-8.963,1.707,26.646
1112,254,2016-01-09 16:39:58.43,-0.654,0.016,0.806,38173845505.0,-26.585,-9.878,29.878
1113,255,2016-01-09 16:39:58.47,-0.694,0.024,0.782,38176589411.0,-27.073,1.341,28.659
1114,256,2016-01-09 16:39:58.51,-0.761,0.028,0.759,38514958891.0,-21.463,15.488,21.28
1115,257,2016-01-09 16:39:58.55,-0.733,0.004,0.772,38609508214.0,-23.78,22.805,15.549
1116,258,2016-01-09 16:39:58.59,-0.696,0.0,0.814,38634245766.0,-21.341,21.22,16.098
1117,259,2016-01-09 16:39:58.63,-0.711,0.022,0.804,38661375819.0,-19.39,8.598,18.354
1118,260,2016-01-09 16:39:58.67,-0.684,0.032,0.815,38726483994.0,-17.988,8.598,14.207
1119,261,2016-01-09 16:39:58.71,-0.698,-0.016,0.805,38742267537.0,-15.854,13.476,13.537
1120,262,2016-01-09 16:39:58.75,-0.773,-0.009,0.754,38769452380.0,-14.146,18.537,16.585
1121,263,2016-01-09 16:39:58.79,-0.778,0.023,0.705,38771008474.0,-12.622,21.951,19.085
1122,264,2016-01-09 16:39:58.83,-0.811,0.009,0.708,38856100141.0,-15.061,30.183,21.585
1123,265,2016-01-09 16:39:58.87,-0.82,0.01,0.709,38858782485.0,-13.841,32.561,27.622
1124,266,2016-01-09 16:39:58.91,-0.802,0.071,0.72,38950710554.0,-11.646,39.146,36.463
1125,267,2016-01-09 16:39:58.95,-0.775,0.109,0.686,38955330763.0,-13.476,40.854,32.134
1126,268,2016-01-09 16:39:58.99,-0.808,0.209,0.626,39048246026.0,-18.537,44.451,29.146
1127,269,2016-01-09 16:39:59.03,-0.883,0.139,0.576,39060868943.0,-9.085,46.89,23.049
1128,270,2016-01-09 16:39:59.07,-0.916,0.133,0.508,39148051182.0,-12.012,60.732,24.207
1129,271,2016-01-09 16:39:59.10,-0.968,0.127,0.391,39170496963.0,-25.671,80.061,22.378
1130,272,2016-01-09 16:39:59.14,-1.06,0.116,0.335,39246327483.0,-25.61,80.305,15.854
1131,273,2016-01-09 16:39:59.19,-1.066,0.156,0.281,39295077588.0,-17.805,82.256,-0.122
1132,274,2016-01-09 16:39:59.23,-0.958,0.086,0.234,39318267848.0,-12.683,82.561,-8.902
1133,275,2016-01-09 16:39:59.27,-0.998,0.062,0.281,39359962849.0,-12.561,69.024,-6.524
1134,276,2016-01-09 16:39:59.30,-1.066,0.126,0.284,39377630661.0,-16.585,52.134,-9.024
1135,277,2016-01-09 16:39:59.34,-1.02,0.076,0.242,39456276078.0,-13.293,51.524,-15.061
1136,278,2016-01-09 16:39:59.38,-1.008,0.071,0.203,39490099567.0,-21.768,57.866,-19.878
1137,279,2016-01-09 16:39:59.46,-1.086,0.039,0.133,39514537901.0,-21.768,57.988,-32.988
1138,280,2016-01-09 16:39:59.50,-1.148,0.068,0.011,39587673838.0,-8.11,61.159,-39.817
1139,281,2016-01-09 16:39:59.54,-1.245,0.041,-0.034,39609775244.0,-4.878,68.354,-44.146
1140,282,2016-01-09 16:39:59.58,-1.239,-0.083,-0.096,39636157276.0,-5.366,55.244,-43.72
1141,283,2016-01-09 16:39:59.62,-1.201,-0.118,-0.175,39730723109.0,-16.341,47.134,-49.268
1142,284,2016-01-09 16:39:59.66,-1.145,-0.174,-0.131,39735267849.0,-31.585,41.28,-62.012
1143,285,2016-01-09 16:39:59.70,-1.066,-0.252,-0.186,39779496859.0,-30.671,40.793,-65.671
1144,286,2016-01-09 16:39:59.74,-0.972,-0.314,-0.194,39784165713.0,-34.634,38.963,-65.61
1145,287,2016-01-09 16:39:59.78,-1.0,-0.307,-0.256,39828164255.0,-50.732,34.085,-70.915
1146,288,2016-01-09 16:39:59.82,-1.038,-0.343,-0.342,39939830140.0,-42.5,36.22,-69.634
1147,289,2016-01-09 16:39:59.86,-1.098,-0.291,-0.339,39977841911.0,-28.78,54.512,-59.756
1148,290,2016-01-09 16:39:59.90,-0.897,-0.307,-0.285,40003789984.0,-20.305,77.5,-47.744
1149,291,2016-01-09 16:39:59.94,-0.646,-0.394,-0.297,40026221598.0,-4.573,99.695,-29.634
1150,292,2016-01-09 16:39:59.98,-0.683,-0.328,-0.278,40048762171.0,6.341,93.049,-28.415
1151,293,2016-01-09 16:40:00.02,-0.677,-0.329,-0.344,40073524932.0,-7.073,58.049,-19.39
1152,294,2016-01-09 16:40:00.06,-0.519,-0.407,-0.429,40076905349.0,-18.476,36.707,-5.061
1153,295,2016-01-09 16:40:00.10,-0.785,-0.338,-0.65,40172495818.0,-26.951,33.415,11.463
1154,296,2016-01-09 16:40:00.14,-1.041,-0.43,-0.771,40175192432.0,-21.89,34.512,27.5
1155,297,2016-01-09 16:40:00.18,-1.275,-0.422,-0.746,40315717535.0,-26.159,35.122,18.476
1156,298,2016-01-09 16:40:00.22,-0.973,-0.419,-0.722,40319954098.0,-16.463,33.293,12.195
1157,299,2016-01-09 16:40:00.26,-0.671,-0.502,-0.563,40416433577.0,0.976,17.622,28.78
1158,300,2016-01-09 16:40:00.30,-0.877,-0.356,-0.533,40449576338.0,7.134,-12.561,9.085
1159,301,2016-01-09 16:40:00.34,-0.915,-0.315,-0.46,40510786390.0,-2.134,-37.622,-4.817
1160,302,2016-01-09 16:40:00.38,-0.853,-0.388,-0.329,40515069619.0,18.354,-38.049,-4.573
1161,303,2016-01-09 16:40:00.42,-0.821,-0.364,-0.34,40559458577.0,35.732,-21.707,4.634
1162,304,2016-01-09 16:40:00.46,-0.914,-0.321,-0.245,40611543838.0,47.073,-22.5,3.659
1163,305,2016-01-09 16:40:00.50,-0.887,-0.366,-0.109,40614206286.0,37.988,-42.317,2.439
1164,306,2016-01-09 16:40:00.54,-0.964,-0.311,-0.104,40659105139.0,18.11,-37.622,-1.037
1165,307,2016-01-09 16:40:00.58,-1.084,-0.261,-0.254,40756821233.0,5.61,-29.939,3.78
1166,308,2016-01-09 16:40:00.62,-0.974,-0.307,-0.279,40778315921.0,-1.341,-17.622,4.512
1167,309,2016-01-09 16:40:00.66,-0.842,-0.367,-0.269,40806518161.0,-12.561,-3.049,24.451
1168,310,2016-01-09 16:40:00.70,-1.434,-0.427,-0.442,40831852432.0,-28.598,5.671,17.561
1169,311,2016-01-09 16:40:00.74,-1.115,-0.27,-0.597,40855074098.0,-37.134,2.805,-2.622
1170,312,2016-01-09 16:40:00.78,-0.66,-0.19,-0.372,40876791338.0,-35.549,51.646,5.915
1171,313,2016-01-09 16:40:00.82,-0.873,-0.124,-0.463,40900777432.0,-51.463,15.305,5.0
1172,314,2016-01-09 16:40:00.86,-0.874,-0.216,-0.507,40905110193.0,-51.341,-44.756,-10.793
1173,315,2016-01-09 16:40:00.90,-0.951,-0.295,-0.408,40998228683.0,-57.622,-41.28,-18.72
1174,316,2016-01-09 16:40:00.97,-0.892,-0.281,-0.214,,,,
1175,317,2016-01-09 16:40:01.01,-0.953,-0.254,-0.205,41046968940.0,-82.134,-24.085,-13.598
1176,318,2016-01-09 16:40:01.06,-1.025,-0.32,-0.173,41050804409.0,-63.537,-38.598,-12.927
1177,319,2016-01-09 16:40:01.10,-1.034,-0.373,-0.198,41244331129.0,-33.415,-31.524,-4.817
1178,320,2016-01-09 16:40:01.13,-1.037,-0.31,-0.245,41268671494.0,-24.878,-29.878,5.0
1179,321,2016-01-09 16:40:01.17,-0.956,-0.289,-0.28,41294139358.0,-17.988,-24.207,11.829
1180,322,2016-01-09 16:40:01.21,-0.943,-0.229,-0.298,41342449255.0,-7.439,-4.756,12.805
1181,323,2016-01-09 16:40:01.25,-0.911,-0.209,-0.298,41345121025.0,-3.476,13.171,13.902
1182,324,2016-01-09 16:40:01.29,-1.05,-0.276,-0.281,41439943836.0,-1.22,23.72,12.866
1183,325,2016-01-09 16:40:01.33,-1.01,-0.194,-0.39,41442975348.0,-2.988,29.756,7.256
1184,326,2016-01-09 16:40:01.37,-0.94,-0.214,-0.405,41488846443.0,-6.159,35.366,5.915
1185,327,2016-01-09 16:40:01.41,-0.945,-0.137,-0.41,41491904828.0,-2.805,34.573,-1.341
1186,328,2016-01-09 16:40:01.45,-0.968,-0.188,-0.437,41537304670.0,0.183,17.927,-8.232
1187,329,2016-01-09 16:40:01.49,-0.921,-0.185,-0.407,41583212691.0,-2.439,19.512,-14.817
1188,330,2016-01-09 16:40:01.53,-0.997,-0.168,-0.426,41587011024.0,-5.793,8.659,-17.622
1189,331,2016-01-09 16:40:01.57,-1.036,-0.187,-0.417,41631982432.0,-5.549,-4.329,-21.28
1190,332,2016-01-09 16:40:01.61,-1.03,-0.198,-0.376,41695699045.0,-3.171,-5.976,-22.256
1191,333,2016-01-09 16:40:01.65,-0.894,-0.217,-0.401,41705779567.0,-0.732,-4.207,-23.293
1192,334,2016-01-09 16:40:01.69,-0.925,-0.292,-0.396,41743955035.0,-2.5,-6.585,-24.878
1193,335,2016-01-09 16:40:01.73,-1.005,-0.332,-0.373,41755701753.0,-0.427,-14.756,-25.671
1194,336,2016-01-09 16:40:01.77,-0.948,-0.32,-0.355,41794035452.0,0.732,-11.646,-20.061
1195,337,2016-01-09 16:40:01.81,-0.94,-0.34,-0.379,41806503160.0,1.463,-1.341,-14.024
1196,338,2016-01-09 16:40:01.85,-0.911,-0.357,-0.372,41841907067.0,9.207,-4.085,-12.378
1197,339,2016-01-09 16:40:01.89,-0.932,-0.381,-0.453,41853916338.0,15.488,-6.037,-9.756
1198,340,2016-01-09 16:40:01.93,-0.922,-0.418,-0.449,41892553056.0,16.28,0.61,-6.098
1199,341,2016-01-09 16:40:01.97,-0.898,-0.444,-0.359,41906593473.0,20.244,8.659,-1.646
1200,342,2016-01-09 16:40:02.01,-0.881,-0.398,-0.364,41939074827.0,22.378,14.146,3.537
1201,343,2016-01-09 16:40:02.05,-0.924,-0.404,-0.354,41949770764.0,22.805,13.354,6.768
1202,344,2016-01-09 16:40:02.09,-0.875,-0.406,-0.364,42039505295.0,30.061,11.402,8.354
1203,345,2016-01-09 16:40:02.13,-0.832,-0.363,-0.373,42057371285.0,36.646,16.646,13.11
1204,346,2016-01-09 16:40:02.17,-0.845,-0.35,-0.365,42087763889.0,38.415,23.902,17.744
1205,347,2016-01-09 16:40:02.21,-0.938,-0.326,-0.425,42089318472.0,40.305,33.72,16.28
1206,348,2016-01-09 16:40:02.25,-0.966,-0.369,-0.42,42122566650.0,27.317,45.061,17.622
1207,349,2016-01-09 16:40:02.29,-1.022,-0.371,-0.429,42125224671.0,14.817,52.683,13.659
1208,350,2016-01-09 16:40:02.33,-0.974,-0.34,-0.468,42220466181.0,10.122,51.159,8.293
1209,351,2016-01-09 16:40:02.37,-0.873,-0.344,-0.449,42314473629.0,9.268,48.841,1.098
1210,352,2016-01-09 16:40:02.41,-0.889,-0.336,-0.503,42318748316.0,6.646,32.622,-5.183
1211,353,2016-01-09 16:40:02.49,-0.788,-0.385,-0.478,42365496180.0,6.22,12.927,-6.951
1212,354,2016-01-09 16:40:02.53,-0.824,-0.351,-0.48,42389876129.0,3.78,1.768,-0.366
1213,355,2016-01-09 16:40:02.57,-0.918,-0.374,-0.417,42465534252.0,7.012,-1.037,4.573
1214,356,2016-01-09 16:40:02.61,-0.875,-0.381,-0.434,42490535608.0,12.561,-0.183,2.805
1215,357,2016-01-09 16:40:02.65,-0.901,-0.354,-0.49,42515548212.0,10.427,7.744,-1.646
1216,358,2016-01-09 16:40:02.72,-0.904,-0.369,-0.479,42518496285.0,7.317,0.854,-4.695
1217,359,2016-01-09 16:40:02.77,-0.995,-0.363,-0.489,42558211701.0,3.232,4.451,-5.366
1218,360,2016-01-09 16:40:02.80,-0.893,-0.374,-0.468,,,,
1219,361,2016-01-09 16:40:02.84,-0.725,-0.359,-0.476,42606965764.0,-5.793,4.024,-5.854
1220,362,2016-01-09 16:40:02.89,-0.781,-0.378,-0.443,42611641859.0,-4.024,-13.415,-1.951
1221,363,2016-01-09 16:40:02.92,-0.891,-0.393,-0.513,42655693420.0,-7.134,-17.988,-7.073
1222,364,2016-01-09 16:40:02.96,-0.934,-0.369,-0.571,42660019149.0,-3.78,6.159,-1.829
1223,365,2016-01-09 16:40:03.00,-0.819,-0.376,-0.581,42704866752.0,-8.598,12.256,6.951
1224,366,2016-01-09 16:40:03.00,-0.819,-0.376,-0.581,43487527275.0,-16.098,6.28,25.732
1225,367,2016-01-09 16:40:03.00,-0.774,-0.244,-0.45,42704866752.0,-8.598,12.256,6.951
1226,368,2016-01-09 16:40:03.00,-0.774,-0.244,-0.45,43487527275.0,-16.098,6.28,25.732
1227,369,2016-01-09 16:40:03.04,-0.854,-0.38,-0.619,42709202325.0,-11.28,13.78,7.805
1228,370,2016-01-09 16:40:03.08,-0.837,-0.394,-0.586,42756075036.0,-12.622,19.939,8.72
1229,371,2016-01-09 16:40:03.12,-0.863,-0.377,-0.56,42758764203.0,-5.366,24.878,6.341
1230,372,2016-01-09 16:40:03.16,-0.952,-0.389,-0.533,42804865921.0,-3.232,21.707,-0.915
1231,373,2016-01-09 16:40:03.20,-0.927,-0.462,-0.448,42807582535.0,-3.11,23.232,-6.89
1232,374,2016-01-09 16:40:03.24,-0.945,-0.382,-0.435,42860708889.0,4.451,12.927,-13.72
1233,375,2016-01-09 16:40:03.28,-0.71,-0.313,-0.45,42869514826.0,12.927,-15.122,-21.646
1234,376,2016-01-09 16:40:03.32,-0.885,-0.325,-0.432,42934083890.0,23.476,-34.268,-19.939
1235,377,2016-01-09 16:40:03.36,-0.863,-0.354,-0.416,42952024619.0,18.354,-53.841,-15.671
1236,378,2016-01-09 16:40:03.40,-0.836,-0.397,-0.357,42954535869.0,21.646,-31.341,-6.829
1237,379,2016-01-09 16:40:03.44,-0.871,-0.419,-0.397,42957226077.0,7.683,-42.622,0.854
1238,380,2016-01-09 16:40:03.48,-0.872,-0.399,-0.424,43048888003.0,1.22,-29.451,-0.732
1239,381,2016-01-09 16:40:03.52,-0.787,-0.444,-0.411,43051613940.0,-8.659,-15.549,-1.463
1240,382,2016-01-09 16:40:03.56,-0.764,-0.408,-0.524,43097326128.0,-11.829,-8.902,-3.963
1241,383,2016-01-09 16:40:03.60,-0.898,-0.461,-0.539,43100419044.0,-18.659,5.0,-3.415
1242,384,2016-01-09 16:40:03.64,-0.885,-0.483,-0.501,43146243368.0,-18.537,9.634,-4.756
1243,385,2016-01-09 16:40:03.68,-0.937,-0.474,-0.517,43148936180.0,-17.134,12.988,-2.256
1244,386,2016-01-09 16:40:03.72,-0.962,-0.464,-0.448,43358662535.0,-12.683,14.817,4.451
1245,387,2016-01-09 16:40:03.76,-0.807,-0.494,-0.322,43374983420.0,-9.634,10.671,9.512
1246,388,2016-01-09 16:40:03.80,-0.749,-0.407,-0.451,43405679930.0,-7.805,4.573,3.902
1247,389,2016-01-09 16:40:03.84,-0.795,-0.448,-0.394,43407455138.0,-10.61,4.939,1.585
1248,390,2016-01-09 16:40:03.88,-0.786,-0.447,-0.387,43439088627.0,-9.756,-3.963,11.585
1249,391,2016-01-09 16:40:03.92,-0.795,-0.366,-0.388,43448542533.0,-12.622,2.317,21.646
1250,392,2016-01-09 16:40:04.04,-0.858,-0.234,-0.708,43490192952.0,-18.841,12.134,20.244
1251,393,2016-01-09 16:40:04.08,-0.816,-0.374,-0.633,43536256806.0,-19.573,23.659,12.805
1252,394,2016-01-09 16:40:04.12,-0.802,-0.405,-0.728,43538952691.0,-31.098,59.939,12.134
1253,395,2016-01-09 16:40:04.16,-0.906,-0.305,-0.67,43584828680.0,-25.671,70.061,10.854
1254,396,2016-01-09 16:40:04.20,-0.78,-0.298,-0.629,43587541232.0,-21.463,45.793,14.878
1255,397,2016-01-09 16:40:04.24,-0.857,-0.179,-0.659,43639542378.0,3.72,50.427,6.707
1256,398,2016-01-09 16:40:04.28,-0.79,-0.254,-0.601,43648570347.0,8.659,19.756,0.427
1257,399,2016-01-09 16:40:04.32,-0.754,-0.197,-0.691,43689548889.0,-34.451,-5.671,3.171
1258,400,2016-01-09 16:40:04.35,-0.689,-0.149,-0.691,,,,
1259,401,2016-01-09 16:40:04.40,-0.712,-0.089,-0.781,43743541962.0,20.122,8.476,12.866
1260,402,2016-01-09 16:40:04.44,-0.719,-0.192,-0.706,43757307378.0,14.39,6.524,8.354
1261,403,2016-01-09 16:40:04.47,-0.74,-0.17,-0.768,43790124096.0,2.622,10.0,6.585
1262,404,2016-01-09 16:40:04.52,-0.764,-0.167,-0.791,43827929096.0,-13.841,15.305,11.098
1263,405,2016-01-09 16:40:04.56,-0.686,-0.242,-0.829,43843510503.0,-10.122,23.11,17.805
1264,406,2016-01-09 16:40:04.59,-0.806,-0.128,-0.814,,,,
1265,407,2016-01-09 16:40:04.64,-0.736,-0.186,-0.786,43892015398.0,-27.378,11.524,22.012
1266,408,2016-01-09 16:40:04.68,-0.744,-0.09,-0.792,43931772898.0,-4.878,31.341,18.841
1267,409,2016-01-09 16:40:04.71,-0.693,-0.114,-0.712,43958344773.0,-25.488,24.268,12.073
1268,410,2016-01-09 16:40:04.75,-0.751,-0.105,-0.754,43990711440.0,-10.732,31.585,10.122
1269,411,2016-01-09 16:40:04.79,-0.719,-0.066,-0.751,44003552950.0,-13.476,27.073,-2.805
1270,412,2016-01-09 16:40:04.83,-0.673,-0.102,-0.675,44020766440.0,-3.841,21.463,-10.549
1271,413,2016-01-09 16:40:04.87,-0.75,-0.104,-0.766,44025127950.0,-0.183,2.256,-6.402
1272,414,2016-01-09 16:40:04.91,-0.835,-0.071,-0.839,44070056284.0,-0.61,-9.024,-8.659
1273,415,2016-01-09 16:40:04.95,-0.674,-0.085,-0.748,44074194670.0,-0.488,-4.268,-8.78
1274,416,2016-01-09 16:40:04.99,-0.742,-0.081,-0.794,44118396129.0,-6.28,3.902,0.305
1275,417,2016-01-09 16:40:05.03,-0.793,-0.104,-0.767,44218611494.0,-12.866,-2.744,2.012
1276,418,2016-01-09 16:40:05.07,-0.656,-0.161,-0.71,44223186910.0,-6.159,2.561,4.817
1277,419,2016-01-09 16:40:05.11,-0.691,-0.149,-0.777,44279132742.0,-11.646,12.195,6.037
1278,420,2016-01-09 16:40:05.15,-0.645,-0.162,-0.751,44297133471.0,-3.293,-12.5,2.622
1279,421,2016-01-09 16:40:05.19,-0.7,-0.14,-0.799,44333186961.0,5.915,5.305,-4.512
1280,422,2016-01-09 16:40:05.23,-0.753,-0.124,-0.751,44349063836.0,-6.159,12.622,-10.0
1281,423,2016-01-09 16:40:05.27,-0.775,-0.194,-0.84,44377183784.0,4.207,1.098,-16.098
1282,424,2016-01-09 16:40:05.31,-0.958,-0.166,-0.97,44378755607.0,13.598,-3.354,-29.756
1283,425,2016-01-09 16:40:05.35,-0.918,-0.092,-0.923,44413610764.0,9.756,-11.159,-50.549
1284,426,2016-01-09 16:40:05.39,-0.654,-0.181,-0.743,44416331180.0,-3.049,3.963,-50.488
1285,427,2016-01-09 16:40:05.43,-0.543,-0.187,-0.692,44462515452.0,6.524,-22.988,-30.427
1286,428,2016-01-09 16:40:05.47,-0.568,-0.154,-0.653,44465381441.0,29.756,-49.329,-14.146
1287,429,2016-01-09 16:40:05.51,-0.636,-0.203,-0.657,44511571545.0,35.793,-40.793,-10.122
1288,430,2016-01-09 16:40:05.55,-0.674,-0.286,-0.679,44514427431.0,22.866,-18.78,-5.427
1289,431,2016-01-09 16:40:05.59,-0.694,-0.295,-0.711,44559868523.0,18.963,10.183,-6.585
1290,432,2016-01-09 16:40:05.63,-0.662,-0.392,-0.712,44562988784.0,18.902,24.146,-2.561
1291,433,2016-01-09 16:40:05.67,-0.743,-0.411,-0.751,44608653835.0,25.427,23.049,-2.256
1292,434,2016-01-09 16:40:05.71,-0.693,-0.407,-0.755,44615304721.0,25.549,15.305,0.122
1293,435,2016-01-09 16:40:05.75,-0.733,-0.407,-0.736,44667758263.0,17.134,10.671,-1.159
1294,436,2016-01-09 16:40:05.79,-0.649,-0.366,-0.698,44680063574.0,10.732,10.793,-10.915
1295,437,2016-01-09 16:40:05.83,-0.568,-0.381,-0.671,44719273316.0,3.232,18.049,-7.317
1296,438,2016-01-09 16:40:05.87,-0.632,-0.357,-0.699,44731664670.0,-1.402,25.854,1.098
1297,439,2016-01-09 16:40:05.91,-0.622,-0.346,-0.745,44765471128.0,-8.78,18.049,2.927
1298,440,2016-01-09 16:40:05.95,-0.667,-0.353,-0.74,44800833159.0,-8.537,25.915,-6.098
1299,441,2016-01-09 16:40:05.99,-0.702,-0.304,-0.727,44805307638.0,0.122,34.085,-18.049
1300,442,2016-01-09 16:40:06.03,-0.643,-0.358,-0.728,44849447116.0,2.683,15.732,-21.585
1301,443,2016-01-09 16:40:06.07,-0.655,-0.379,-0.762,44853625867.0,7.561,-0.244,-19.695
1302,444,2016-01-09 16:40:06.11,-0.659,-0.364,-0.772,44898199306.0,7.012,-8.598,-15.183
1303,445,2016-01-09 16:40:06.14,-0.594,-0.369,-0.774,,,,
1304,446,2016-01-09 16:40:06.19,-0.606,-0.336,-0.762,44947407585.0,-12.012,-8.78,-4.085
1305,447,2016-01-09 16:40:06.23,-0.561,-0.36,-0.758,44952136127.0,-13.232,-8.415,-1.22
1306,448,2016-01-09 16:40:06.27,-0.623,-0.381,-0.752,45143440555.0,-7.927,-5.854,-4.939
1307,449,2016-01-09 16:40:06.30,-0.609,-0.371,-0.769,45158350919.0,-3.354,-5.244,-5.61
1308,450,2016-01-09 16:40:06.38,-0.682,-0.364,-0.8,45193132951.0,1.646,-2.927,1.89
1309,451,2016-01-09 16:40:06.42,-0.652,-0.427,-0.727,45206282222.0,10.122,0.976,-2.317
1310,452,2016-01-09 16:40:06.47,-0.646,-0.391,-0.725,45240906491.0,7.866,-4.756,4.451
1311,453,2016-01-09 16:40:06.50,-0.693,-0.325,-0.723,45255107795.0,-5.793,-18.049,4.268
1312,454,2016-01-09 16:40:06.54,-0.633,-0.378,-0.706,45338353679.0,-14.939,-27.317,-3.354
1313,455,2016-01-09 16:40:06.58,-0.675,-0.387,-0.701,45362878732.0,-14.39,-24.512,-5.732
1314,456,2016-01-09 16:40:06.62,-0.727,-0.38,-0.713,45388868107.0,-10.366,-24.878,-0.549
1315,457,2016-01-09 16:40:06.66,-0.674,-0.312,-0.768,45414047118.0,-14.268,-5.061,7.195
1316,458,2016-01-09 16:40:06.70,-0.611,-0.354,-0.794,45444585399.0,-12.744,13.841,18.232
1317,459,2016-01-09 16:40:06.74,-0.586,-0.252,-0.863,45447711284.0,-11.646,23.232,19.939
1318,460,2016-01-09 16:40:06.78,-0.571,-0.204,-0.85,45483192585.0,-16.951,35.488,23.537
1319,461,2016-01-09 16:40:06.82,-0.545,-0.25,-0.856,45487565606.0,-21.951,39.329,28.11
1320,462,2016-01-09 16:40:06.86,-0.629,-0.309,-0.83,45531931962.0,-17.927,43.415,24.634
1321,463,2016-01-09 16:40:06.90,-0.646,-0.185,-0.851,45536374618.0,-15.549,38.78,27.378
1322,464,2016-01-09 16:40:06.94,-0.559,-0.173,-0.829,45580685502.0,-12.988,42.561,20.366
1323,465,2016-01-09 16:40:06.98,-0.506,-0.236,-0.841,45585318836.0,-6.402,32.866,11.037
1324,466,2016-01-09 16:40:07.02,-0.512,-0.22,-0.823,45629481232.0,-1.524,23.72,2.561
1325,467,2016-01-09 16:40:07.06,-0.486,-0.172,-0.817,45634015087.0,-5.305,17.5,-4.146
1326,468,2016-01-09 16:40:07.10,-0.544,-0.196,-0.82,45678176438.0,-3.841,10.671,-10.061
1327,469,2016-01-09 16:40:07.14,-0.53,-0.212,-0.755,45688043418.0,4.817,-2.134,-22.927
1328,470,2016-01-09 16:40:07.18,-0.519,-0.145,-0.832,45728454931.0,8.78,-8.232,-27.988
1329,471,2016-01-09 16:40:07.22,-0.568,-0.214,-0.877,45747612430.0,9.451,-4.939,-25.305
1330,472,2016-01-09 16:40:07.26,-0.606,-0.3,-0.886,45783980501.0,10.549,-15.854,-27.195
1331,473,2016-01-09 16:40:07.30,-0.569,-0.279,-0.832,45797031076.0,10.854,-17.317,-27.256
1332,474,2016-01-09 16:40:07.34,-0.56,-0.28,-0.821,45826793785.0,3.659,-14.634,-19.085
1333,475,2016-01-09 16:40:07.38,-0.583,-0.354,-0.831,45844490554.0,-0.732,-22.988,-12.683
1334,476,2016-01-09 16:40:07.46,-0.604,-0.384,-0.803,45880412585.0,-0.915,-24.451,-12.805
1335,477,2016-01-09 16:40:07.50,-0.557,-0.357,-0.79,45897617064.0,-5.061,-19.024,-11.707
1336,478,2016-01-09 16:40:07.54,-0.589,-0.338,-0.783,45936947951.0,-9.939,-9.39,-12.317
1337,479,2016-01-09 16:40:07.58,-0.619,-0.325,-0.802,45947651857.0,-3.537,0.305,-10.488
1338,480,2016-01-09 16:40:07.62,-0.621,-0.375,-0.782,46070310346.0,-2.805,1.098,-10.0
1339,481,2016-01-09 16:40:07.66,-0.596,-0.366,-0.759,46093721336.0,-1.707,3.902,-13.293
1340,482,2016-01-09 16:40:07.70,-0.607,-0.33,-0.788,46125850451.0,-1.89,0.366,-9.024
1341,483,2016-01-09 16:40:07.74,-0.604,-0.302,-0.82,46168883783.0,-4.756,-9.939,-2.012
1342,484,2016-01-09 16:40:07.78,-0.601,-0.321,-0.805,46194024617.0,-4.451,-13.841,0.183
1343,485,2016-01-09 16:40:07.82,-0.617,-0.295,-0.823,46225216284.0,-3.841,-8.598,1.22
1344,486,2016-01-09 16:40:07.86,-0.587,-0.292,-0.797,46228143367.0,-4.207,-5.244,-3.902
1345,487,2016-01-09 16:40:07.90,-0.568,-0.322,-0.793,46263182064.0,-5.549,2.5,-6.524
1346,488,2016-01-09 16:40:07.94,-0.572,-0.335,-0.794,46267471595.0,-1.646,3.963,-9.817
1347,489,2016-01-09 16:40:07.97,-0.568,-0.35,-0.803,,,,
1348,490,2016-01-09 16:40:08.02,-0.593,-0.375,-0.79,46363791700.0,1.707,-0.305,-15.244
1349,491,2016-01-09 16:40:08.06,-0.559,-0.385,-0.793,46366542430.0,4.695,-2.805,-13.049
1350,492,2016-01-09 16:40:08.10,-0.541,-0.365,-0.822,46412523835.0,4.451,-0.183,-3.78
1351,493,2016-01-09 16:40:08.14,-0.561,-0.359,-0.822,46415300501.0,2.439,-3.902,5.366
1352,494,2016-01-09 16:40:08.17,-0.572,-0.336,-0.84,46462955242.0,0.61,-4.085,4.39
1353,495,2016-01-09 16:40:08.21,-0.547,-0.324,-0.819,46472549617.0,-0.976,4.39,5.793
1354,496,2016-01-09 16:40:08.26,-0.576,-0.33,-0.812,46518436283.0,-3.902,9.573,9.085
1355,497,2016-01-09 16:40:08.29,-0.555,-0.339,-0.776,46534311699.0,-1.585,8.902,8.902
1356,498,2016-01-09 16:40:08.33,-0.561,-0.336,-0.792,46566479668.0,0.305,6.22,11.707
1357,499,2016-01-09 16:40:08.37,-0.585,-0.36,-0.795,46575484981.0,7.5,1.707,9.695
1358,500,2016-01-09 16:40:08.41,-0.586,-0.35,-0.828,46615203679.0,10.854,2.561,7.866
1359,501,2016-01-09 16:40:08.45,-0.571,-0.359,-0.83,46622834824.0,13.537,7.256,9.39
1360,502,2016-01-09 16:40:08.49,-0.546,-0.353,-0.811,46664169095.0,12.988,14.817,8.902
1361,503,2016-01-09 16:40:08.53,-0.539,-0.27,-0.867,46671839512.0,9.207,13.232,7.683
1362,504,2016-01-09 16:40:08.57,-0.554,-0.288,-0.816,46713583836.0,7.073,9.695,-3.049
1363,505,2016-01-09 16:40:08.61,-0.555,-0.417,-0.786,46726661440.0,7.561,0.854,-5.366
1364,506,2016-01-09 16:40:08.65,-0.579,-0.384,-0.838,46765575658.0,6.22,-1.463,-0.122
1365,507,2016-01-09 16:40:08.69,-0.596,-0.337,-0.817,46775741803.0,-4.878,-18.841,0.793
1366,508,2016-01-09 16:40:08.73,-0.603,-0.321,-0.79,46814146543.0,-9.085,-16.829,-4.39
1367,509,2016-01-09 16:40:08.77,-0.599,-0.365,-0.758,46824750397.0,-7.561,-8.049,-7.622
1368,510,2016-01-09 16:40:08.81,-0.59,-0.362,-0.751,46899013939.0,-6.89,-3.171,-6.951
1369,511,2016-01-09 16:40:08.85,-0.576,-0.362,-0.769,46921191283.0,-5.61,-5.854,-4.756
1370,512,2016-01-09 16:40:08.89,-0.589,-0.329,-0.807,47063366961.0,-7.134,-3.537,-3.72
1371,513,2016-01-09 16:40:08.97,-0.605,-0.399,-0.75,47095178626.0,-5.549,2.866,-3.171
1372,514,2016-01-09 16:40:09.01,-0.58,-0.365,-0.763,47120053574.0,-3.963,0.427,-2.439
1373,515,2016-01-09 16:40:09.05,-0.552,-0.375,-0.738,47199528054.0,-2.012,-0.305,-2.622
1374,516,2016-01-09 16:40:09.09,-0.649,-0.293,-0.801,47216497794.0,-1.951,-7.927,-4.085
1375,517,2016-01-09 16:40:09.13,-0.624,-0.34,-0.799,47241400815.0,0.854,-14.817,-10.61
1376,518,2016-01-09 16:40:09.17,-0.632,-0.437,-0.77,47249748523.0,0.305,-5.854,-6.951
1377,519,2016-01-09 16:40:09.21,-0.616,-0.421,-0.759,47286976698.0,-0.793,-3.902,-2.073
1378,520,2016-01-09 16:40:09.25,-0.613,-0.333,-0.757,47291577324.0,-8.232,-17.256,4.512
1379,521,2016-01-09 16:40:09.29,-0.598,-0.253,-0.824,47335667534.0,-7.683,-11.646,7.805
1380,522,2016-01-09 16:40:09.33,-0.62,-0.306,-0.807,47387410606.0,-1.037,-2.195,-0.61
1381,523,2016-01-09 16:40:09.37,-0.614,-0.417,-0.734,47390080710.0,-1.524,7.5,3.72
1382,524,2016-01-09 16:40:09.41,-0.602,-0.405,-0.743,47436141804.0,0.854,-3.537,2.988
1383,525,2016-01-09 16:40:09.45,-0.636,-0.333,-0.753,47438871961.0,0.427,-16.22,7.622
1384,526,2016-01-09 16:40:09.49,-0.62,-0.314,-0.793,47493811439.0,0.488,-8.354,13.415
1385,527,2016-01-09 16:40:09.53,-0.656,-0.281,-0.825,47501480033.0,6.22,5.244,-3.476
1386,528,2016-01-09 16:40:09.57,-0.633,-0.393,-0.749,47542839460.0,3.72,11.098,-3.11
1387,529,2016-01-09 16:40:09.61,-0.639,-0.405,-0.719,47552503939.0,2.439,10.976,3.11
1388,530,2016-01-09 16:40:09.65,-0.616,-0.342,-0.718,47591083366.0,0.061,-10.0,7.805
1389,531,2016-01-09 16:40:09.69,-0.631,-0.333,-0.711,47601138731.0,-2.073,-7.805,10.244
1390,532,2016-01-09 16:40:09.72,-0.705,-0.288,-0.809,47640317272.0,3.963,-4.939,2.927
1391,533,2016-01-09 16:40:09.77,-0.669,-0.409,-0.749,47650314928.0,5.122,2.195,1.707
1392,534,2016-01-09 16:40:09.81,-0.653,-0.424,-0.697,47688339668.0,6.037,4.268,6.829
1393,535,2016-01-09 16:40:09.85,-0.625,-0.374,-0.707,47696671595.0,2.744,-12.744,9.39
1394,536,2016-01-09 16:40:09.89,-0.641,-0.352,-0.715,47794919668.0,2.5,-15.854,21.159
1395,537,2016-01-09 16:40:09.93,-0.668,-0.293,-0.812,47808574460.0,10.488,-10.0,17.744
1396,538,2016-01-09 16:40:09.96,-0.67,-0.35,-0.749,47837933262.0,12.622,-6.341,6.463
1397,539,2016-01-09 16:40:10.00,-0.647,-0.419,-0.703,47871919304.0,12.683,1.585,8.293
1398,540,2016-01-09 16:40:10.00,-0.647,-0.419,-0.703,48510873728.0,-19.512,15.488,21.585
1399,541,2016-01-09 16:40:10.00,-0.817,-0.069,-0.64,47871919304.0,12.683,1.585,8.293
1400,542,2016-01-09 16:40:10.00,-0.817,-0.069,-0.64,48510873728.0,-19.512,15.488,21.585
1401,543,2016-01-09 16:40:10.04,-0.644,-0.382,-0.697,47876283887.0,14.573,4.024,4.756
1402,544,2016-01-09 16:40:10.08,-0.635,-0.374,-0.724,47920632793.0,9.817,-3.902,10.671
1403,545,2016-01-09 16:40:10.12,-0.677,-0.353,-0.762,47925012481.0,18.537,4.085,17.378
1404,546,2016-01-09 16:40:10.16,-0.672,-0.396,-0.756,47969317897.0,17.927,9.512,13.537
1405,547,2016-01-09 16:40:10.20,-0.618,-0.389,-0.686,48069842740.0,20.61,22.012,20.915
1406,548,2016-01-09 16:40:10.24,-0.597,-0.381,-0.736,48078448730.0,17.012,18.78,23.78
1407,549,2016-01-09 16:40:10.28,-0.686,-0.348,-0.721,48128883835.0,16.89,11.402,20.488
1408,550,2016-01-09 16:40:10.32,-0.709,-0.391,-0.711,48142712534.0,18.11,4.573,16.22
1409,551,2016-01-09 16:40:10.36,-0.737,-0.305,-0.711,48178155658.0,20.61,11.768,17.439
1410,552,2016-01-09 16:40:10.40,-0.674,-0.334,-0.672,48230795657.0,13.415,11.341,13.78
1411,553,2016-01-09 16:40:10.48,-0.749,-0.337,-0.666,48249109460.0,14.39,-1.159,16.829
1412,554,2016-01-09 16:40:10.52,-0.795,-0.359,-0.647,48277142480.0,-5.854,-27.805,23.902
1413,555,2016-01-09 16:40:10.56,-0.834,-0.309,-0.646,48278622480.0,13.293,-25.549,21.098
1414,556,2016-01-09 16:40:10.60,-0.87,-0.315,-0.609,48313522481.0,3.537,-44.329,15.549
1415,557,2016-01-09 16:40:10.64,-0.838,-0.317,-0.544,48316253940.0,0.854,-36.037,15.793
1416,558,2016-01-09 16:40:10.72,-0.837,-0.322,-0.645,48362349563.0,-4.817,-29.878,16.585
1417,559,2016-01-09 16:40:10.76,-0.916,-0.285,-0.577,48365068157.0,-14.695,-31.524,14.817
1418,560,2016-01-09 16:40:10.80,-0.882,-0.262,-0.545,48411030085.0,-15.732,-40.244,12.195
