,index,timestamp,ACCEL_X,ACCEL_Y,ACCEL_Z,Time_since_start_y,GYRO_X,GYRO_Y,GYRO_Z
0,0,2016-01-09 15:59:57.46,-0.367,-0.652,-0.669,,,,
1,1,2016-01-09 15:59:57.50,-0.372,-0.66,-0.683,,,,
2,2,2016-01-09 15:59:57.54,-0.371,-0.656,-0.674,,,,
3,3,2016-01-09 15:59:57.58,-0.374,-0.659,-0.673,23252454679.0,-1.402,-0.183,-2.195
4,4,2016-01-09 15:59:57.62,-0.376,-0.648,-0.679,23255960408.0,-1.463,-0.549,-1.829
5,5,2016-01-09 15:59:57.66,-0.372,-0.647,-0.678,23302015148.0,-1.402,-1.159,-1.463
6,6,2016-01-09 15:59:57.70,-0.377,-0.648,-0.676,23352313273.0,-1.037,-0.366,-0.793
7,7,2016-01-09 15:59:57.74,-0.383,-0.636,-0.697,23355250668.0,-0.732,-0.305,-0.366
8,8,2016-01-09 15:59:57.78,-0.382,-0.641,-0.682,23401865200.0,-1.28,0.244,-0.244
9,9,2016-01-09 15:59:57.82,-0.387,-0.645,-0.683,23404132960.0,-1.341,0.366,0.488
10,10,2016-01-09 15:59:57.86,-0.384,-0.645,-0.696,23451231502.0,-2.683,0.0,0.854
11,11,2016-01-09 15:59:57.90,-0.392,-0.639,-0.687,23453215929.0,-4.085,-0.305,-0.305
12,12,2016-01-09 15:59:57.94,-0.394,-0.641,-0.689,23501502127.0,-1.524,0.244,-1.463
13,13,2016-01-09 15:59:57.98,-0.398,-0.647,-0.682,23504847179.0,-0.183,0.976,-2.439
14,14,2016-01-09 15:59:58.02,-0.406,-0.643,-0.688,23551401137.0,-2.134,-0.488,-3.354
15,15,2016-01-09 15:59:58.06,-0.403,-0.638,-0.687,23554157439.0,-1.524,-0.366,-5.183
16,16,2016-01-09 15:59:58.10,-0.389,-0.646,-0.679,23601450200.0,-0.488,-0.244,-7.744
17,17,2016-01-09 15:59:58.14,-0.397,-0.652,-0.679,23604248793.0,1.28,-0.244,-8.598
18,18,2016-01-09 15:59:58.18,-0.385,-0.645,-0.675,23651448689.0,0.793,-0.305,-10.244
19,19,2016-01-09 15:59:58.22,-0.385,-0.65,-0.671,23654775199.0,-0.305,0.0,-13.415
20,20,2016-01-09 15:59:58.26,-0.38,-0.641,-0.667,23799668377.0,0.183,0.671,-18.171
21,21,2016-01-09 15:59:58.30,-0.361,-0.646,-0.67,23803443429.0,0.183,2.805,-23.354
22,22,2016-01-09 15:59:58.34,-0.344,-0.649,-0.66,23849636346.0,0.061,3.293,-26.829
23,23,2016-01-09 15:59:58.38,-0.362,-0.652,-0.667,23853653533.0,-1.28,2.683,-30.366
24,24,2016-01-09 15:59:58.42,-0.349,-0.656,-0.675,23901017908.0,-3.171,5.366,-32.927
25,25,2016-01-09 15:59:58.46,-0.362,-0.674,-0.672,23904451658.0,-5.305,9.207,-33.963
26,26,2016-01-09 15:59:58.50,-0.335,-0.68,-0.69,23949736085.0,-5.61,8.476,-36.159
27,27,2016-01-09 15:59:58.54,-0.287,-0.679,-0.689,23953112387.0,-5.122,8.415,-40.244
28,28,2016-01-09 15:59:58.58,-0.255,-0.688,-0.716,24000875825.0,-2.866,3.78,-43.841
29,29,2016-01-09 15:59:58.62,-0.199,-0.67,-0.72,24004497804.0,-3.537,2.866,-46.159
30,30,2016-01-09 15:59:58.66,-0.183,-0.683,-0.712,24051536710.0,-6.646,4.878,-45.244
31,31,2016-01-09 15:59:58.70,-0.127,-0.675,-0.717,24055168897.0,-6.159,3.476,-41.524
32,32,2016-01-09 15:59:58.74,-0.115,-0.659,-0.725,24101605356.0,-9.634,2.866,-42.439
33,33,2016-01-09 15:59:58.78,-0.076,-0.672,-0.757,24105441866.0,-11.22,-1.768,-43.72
34,34,2016-01-09 15:59:58.81,-0.041,-0.686,-0.759,24152567387.0,-7.622,0.122,-41.098
35,35,2016-01-09 15:59:58.86,-0.026,-0.668,-0.743,24155203481.0,-5.061,-2.134,-37.622
36,36,2016-01-09 15:59:58.90,0.003,-0.644,-0.747,24202928272.0,-3.293,-2.5,-33.049
37,37,2016-01-09 15:59:58.94,0.023,-0.658,-0.747,24205654366.0,-1.28,-2.927,-29.329
38,38,2016-01-09 15:59:58.97,0.027,-0.648,-0.727,24252796554.0,3.171,-4.878,-25.732
39,39,2016-01-09 15:59:59.01,0.031,-0.656,-0.738,24255244001.0,5.488,-2.622,-24.634
40,40,2016-01-09 15:59:59.05,0.048,-0.69,-0.724,24302990147.0,5.915,-2.012,-24.085
41,41,2016-01-09 15:59:59.13,0.045,-0.684,-0.657,24305619106.0,7.866,-0.976,-18.72
42,42,2016-01-09 15:59:59.17,0.04,-0.698,-0.637,24352866814.0,10.915,-0.671,-18.537
43,43,2016-01-09 15:59:59.21,0.033,-0.719,-0.652,24355454470.0,13.598,-0.122,-18.963
44,44,2016-01-09 15:59:59.25,0.037,-0.731,-0.647,24402869470.0,15.549,3.293,-17.866
45,45,2016-01-09 15:59:59.29,0.048,-0.745,-0.641,24405549210.0,15.549,4.268,-15.427
46,46,2016-01-09 15:59:59.33,0.07,-0.747,-0.641,24452861502.0,16.707,1.159,-13.841
47,47,2016-01-09 15:59:59.37,0.093,-0.757,-0.61,24455626293.0,16.28,2.256,-13.232
48,48,2016-01-09 15:59:59.41,0.106,-0.765,-0.598,24502861710.0,15.61,5.366,-13.841
49,49,2016-01-09 15:59:59.45,0.121,-0.737,-0.59,24505431449.0,14.268,6.768,-17.134
50,50,2016-01-09 15:59:59.49,0.142,-0.724,-0.558,24552905668.0,11.28,7.256,-18.476
51,51,2016-01-09 15:59:59.53,0.147,-0.732,-0.555,24555650616.0,12.378,7.134,-16.341
52,52,2016-01-09 15:59:59.57,0.152,-0.74,-0.553,24699655564.0,11.646,2.073,-13.293
53,53,2016-01-09 15:59:59.61,0.162,-0.754,-0.531,24703639991.0,7.988,-0.244,-10.732
54,54,2016-01-09 15:59:59.65,0.193,-0.75,-0.54,24749640512.0,6.768,1.646,-9.329
55,55,2016-01-09 15:59:59.69,0.183,-0.745,-0.535,24753623637.0,5.793,2.805,-7.622
56,56,2016-01-09 15:59:59.73,0.16,-0.746,-0.526,24800926345.0,0.915,2.378,-6.707
57,57,2016-01-09 15:59:59.77,0.185,-0.745,-0.543,24804950720.0,-4.817,5.427,-4.207
58,58,2016-01-09 15:59:59.81,0.214,-0.743,-0.561,24852819522.0,-8.72,2.561,-2.012
59,59,2016-01-09 15:59:59.85,0.168,-0.721,-0.57,24855424001.0,-12.744,-0.732,-0.854
60,60,2016-01-09 15:59:59.89,0.174,-0.708,-0.587,24901997283.0,-18.354,0.793,2.927
61,61,2016-01-09 15:59:59.93,0.155,-0.707,-0.609,24950127179.0,-24.817,2.622,4.451
62,62,2016-01-09 15:59:59.97,0.154,-0.694,-0.644,24953993741.0,-29.268,-2.012,4.451
63,63,2016-01-09 16:00:00.01,0.152,-0.671,-0.678,24999691918.0,-36.89,-0.793,3.72
64,64,2016-01-09 16:00:00.05,0.151,-0.651,-0.716,25003886918.0,-42.5,-3.963,3.354
65,65,2016-01-09 16:00:00.09,0.139,-0.615,-0.787,25049713273.0,-46.951,-7.439,2.866
66,66,2016-01-09 16:00:00.13,0.124,-0.595,-0.813,25053842335.0,-49.329,-9.024,3.171
67,67,2016-01-09 16:00:00.17,0.122,-0.542,-0.845,25099654627.0,-50.549,-7.439,4.939
68,68,2016-01-09 16:00:00.21,0.131,-0.497,-0.864,25103587491.0,-51.951,-5.61,6.707
69,69,2016-01-09 16:00:00.25,0.108,-0.463,-0.873,25149731710.0,-51.585,-7.256,7.256
70,70,2016-01-09 16:00:00.29,0.087,-0.418,-0.886,25153672543.0,-51.341,-3.963,6.098
71,71,2016-01-09 16:00:00.33,0.08,-0.401,-0.895,25199698481.0,-50.427,1.402,5.305
72,72,2016-01-09 16:00:00.37,0.085,-0.406,-0.908,25203758793.0,-49.695,3.232,4.878
73,73,2016-01-09 16:00:00.41,0.094,-0.389,-0.91,25249750043.0,-49.878,2.195,2.561
74,74,2016-01-09 16:00:00.45,0.093,-0.354,-0.924,25253670147.0,-47.073,6.098,2.561
75,75,2016-01-09 16:00:00.49,0.068,-0.347,-0.931,25299706554.0,-42.012,7.073,2.866
76,76,2016-01-09 16:00:00.53,0.085,-0.326,-0.952,25302862856.0,-41.951,4.512,3.171
77,77,2016-01-09 16:00:00.57,0.079,-0.296,-0.959,25349665564.0,-41.768,0.427,0.732
78,78,2016-01-09 16:00:00.60,0.091,-0.274,-0.953,25353355668.0,-40.305,-4.451,-2.134
79,79,2016-01-09 16:00:00.65,0.129,-0.258,-0.957,25399629991.0,-38.415,-3.659,-2.134
80,80,2016-01-09 16:00:00.68,0.105,-0.243,-0.966,,,,
81,81,2016-01-09 16:00:00.72,0.091,-0.222,-0.973,25449679158.0,-36.22,-9.512,-1.585
82,82,2016-01-09 16:00:00.77,0.072,-0.212,-0.958,25453383272.0,-36.402,-2.927,-0.122
83,83,2016-01-09 16:00:00.80,0.097,-0.172,-0.968,25499674262.0,-35.976,-1.951,0.854
84,84,2016-01-09 16:00:00.88,0.073,-0.172,-0.904,25601429366.0,-35.976,0.244,2.683
85,85,2016-01-09 16:00:00.92,0.052,-0.127,-0.939,25649576033.0,-37.622,1.28,0.122
86,86,2016-01-09 16:00:00.96,0.001,-0.107,-1.028,25652471501.0,-40.244,5.183,-9.024
87,87,2016-01-09 16:00:01.00,0.026,-0.029,-1.029,25699554470.0,-46.28,3.293,-15.183
88,88,2016-01-09 16:00:01.00,0.026,-0.029,-1.029,26319110979.0,6.28,-14.451,15.915
89,89,2016-01-09 16:00:01.00,-0.051,0.145,-1.002,25699554470.0,-46.28,3.293,-15.183
90,90,2016-01-09 16:00:01.00,-0.051,0.145,-1.002,26319110979.0,6.28,-14.451,15.915
91,91,2016-01-09 16:00:01.04,0.09,0.048,-1.005,25703211658.0,-49.634,0.183,-18.171
92,92,2016-01-09 16:00:01.08,0.193,0.07,-1.023,25749769575.0,-48.659,-21.28,-13.598
93,93,2016-01-09 16:00:01.12,0.214,0.097,-1.082,25752969106.0,-46.89,-32.744,6.098
94,94,2016-01-09 16:00:01.16,0.047,0.178,-1.111,25800120147.0,-47.012,-28.232,18.78
95,95,2016-01-09 16:00:01.20,-0.081,0.271,-1.048,25804147751.0,-46.646,-5.488,10.671
96,96,2016-01-09 16:00:01.24,-0.05,0.219,-1.066,25849843012.0,-41.098,10.366,-5.549
97,97,2016-01-09 16:00:01.28,0.047,0.226,-1.028,25854604366.0,-30.732,-11.037,-3.537
98,98,2016-01-09 16:00:01.32,0.006,0.252,-0.939,25906999782.0,-19.085,-23.415,-0.488
99,99,2016-01-09 16:00:01.36,-0.004,0.247,-0.958,25928333011.0,-6.89,-5.549,4.634
100,100,2016-01-09 16:00:01.40,0.01,0.233,-0.986,25963970199.0,-8.72,4.268,7.622
101,101,2016-01-09 16:00:01.44,0.016,0.224,-0.982,25966854834.0,-15.854,1.28,2.744
102,102,2016-01-09 16:00:01.48,0.008,0.238,-0.961,26004026397.0,-4.39,-2.927,-0.61
103,103,2016-01-09 16:00:01.52,0.005,0.238,-0.961,26007111084.0,3.171,-3.293,0.183
104,104,2016-01-09 16:00:01.56,0.036,0.234,-0.96,26049836918.0,0.061,2.988,0.488
105,105,2016-01-09 16:00:01.60,0.061,0.281,-0.981,26053328272.0,-2.622,3.963,-4.939
106,106,2016-01-09 16:00:01.64,0.078,0.315,-0.995,26100782126.0,-1.037,-0.915,-5.366
107,107,2016-01-09 16:00:01.68,0.064,0.288,-0.995,26104467959.0,-0.427,-3.78,0.793
108,108,2016-01-09 16:00:01.72,0.0,0.248,-0.989,26149367386.0,-6.22,-3.72,3.963
109,109,2016-01-09 16:00:01.76,0.002,0.246,-0.996,26161892386.0,-5.671,-3.171,8.171
110,110,2016-01-09 16:00:01.80,0.037,0.237,-1.017,26202589782.0,-1.646,-2.073,12.988
111,111,2016-01-09 16:00:01.84,-0.016,0.192,-1.048,26208108792.0,3.049,-10.488,14.939
112,112,2016-01-09 16:00:01.88,-0.04,0.154,-1.075,26250814313.0,4.634,-10.61,9.146
113,113,2016-01-09 16:00:01.92,-0.025,0.163,-1.035,26267157907.0,1.585,-4.024,2.683
114,114,2016-01-09 16:00:01.96,-0.023,0.167,-1.021,26305642021.0,1.89,-7.744,9.695
115,115,2016-01-09 16:00:02.04,-0.088,0.136,-0.982,26360711187.0,7.683,-13.11,15.854
116,116,2016-01-09 16:00:02.08,-0.084,0.143,-0.973,26372620459.0,7.134,-5.976,14.024
117,117,2016-01-09 16:00:02.12,-0.068,0.119,-0.984,26415584990.0,4.207,-1.098,14.512
118,118,2016-01-09 16:00:02.16,-0.063,0.096,-0.958,26516226708.0,3.476,2.866,17.622
119,119,2016-01-09 16:00:02.20,-0.08,0.094,-0.977,26533006710.0,2.805,7.744,19.146
120,120,2016-01-09 16:00:02.24,-0.031,0.099,-1.003,26568684001.0,4.39,6.768,14.817
121,121,2016-01-09 16:00:02.28,-0.028,0.109,-1.059,26584444156.0,4.817,4.512,13.415
122,122,2016-01-09 16:00:02.32,-0.088,0.127,-1.061,26612926500.0,9.695,4.329,13.72
123,123,2016-01-09 16:00:02.36,-0.076,0.099,-1.05,26615214313.0,12.561,7.805,9.878
124,124,2016-01-09 16:00:02.40,-0.05,0.08,-1.079,26652202854.0,12.134,13.659,10.183
125,125,2016-01-09 16:00:02.43,-0.055,0.06,-1.041,26654730302.0,7.256,9.939,9.207
126,126,2016-01-09 16:00:02.47,-0.035,0.069,-1.038,26702149782.0,4.756,6.463,6.585
127,127,2016-01-09 16:00:02.51,-0.044,0.084,-1.001,,,,
128,128,2016-01-09 16:00:02.56,-0.016,0.076,-0.982,26752061290.0,7.988,4.085,-4.268
129,129,2016-01-09 16:00:02.63,0.059,0.069,-0.978,26754661759.0,11.037,12.744,-10.61
130,130,2016-01-09 16:00:02.67,0.064,0.064,-0.964,26802307336.0,9.024,13.537,-8.049
131,131,2016-01-09 16:00:02.71,0.071,0.042,-0.989,26804878690.0,7.012,14.024,-10.549
132,132,2016-01-09 16:00:02.75,0.111,0.067,-1.032,26852099204.0,8.476,15.427,-14.207
133,133,2016-01-09 16:00:02.79,0.167,0.01,-1.016,26854748215.0,10.0,14.329,-15.854
134,134,2016-01-09 16:00:02.83,0.154,-0.011,-0.99,26902117387.0,12.5,13.963,-13.171
135,135,2016-01-09 16:00:02.87,0.172,-0.022,-0.972,26904693793.0,14.634,14.756,-15.427
136,136,2016-01-09 16:00:02.91,0.196,-0.071,-0.945,26952191656.0,14.268,14.634,-16.22
137,137,2016-01-09 16:00:02.95,0.132,-0.081,-0.972,26954716135.0,16.951,11.22,-15.793
138,138,2016-01-09 16:00:02.99,0.136,-0.083,-0.978,27027575042.0,17.988,13.963,-15.305
139,139,2016-01-09 16:00:03.03,0.188,-0.09,-0.981,27043778688.0,17.988,16.524,-15.305
140,140,2016-01-09 16:00:03.07,0.189,-0.086,-0.969,27072238271.0,19.085,12.012,-14.817
141,141,2016-01-09 16:00:03.11,0.139,-0.078,-0.985,27074732230.0,16.89,5.183,-13.72
142,142,2016-01-09 16:00:03.15,0.157,-0.086,-1.002,27102216499.0,15.244,0.244,-14.939
143,143,2016-01-09 16:00:03.19,0.187,-0.09,-1.009,27104850197.0,14.512,-2.378,-17.134
144,144,2016-01-09 16:00:03.23,0.14,-0.1,-0.993,27152742072.0,16.098,-3.171,-17.195
145,145,2016-01-09 16:00:03.27,0.143,-0.113,-1.006,27199273168.0,16.646,-3.841,-14.268
146,146,2016-01-09 16:00:03.31,0.156,-0.122,-1.024,27203511658.0,15.549,-7.256,-14.39
147,147,2016-01-09 16:00:03.35,0.131,-0.128,-1.038,27249301969.0,16.341,-12.439,-16.829
148,148,2016-01-09 16:00:03.39,0.124,-0.146,-1.029,27253496604.0,17.317,-8.537,-19.634
149,149,2016-01-09 16:00:03.43,0.147,-0.166,-0.961,27399170561.0,17.012,-4.695,-19.512
150,150,2016-01-09 16:00:03.47,0.121,-0.165,-0.911,27403714207.0,16.646,-5.976,-19.146
151,151,2016-01-09 16:00:03.51,0.122,-0.163,-0.905,27449268845.0,15.854,-10.244,-19.207
152,152,2016-01-09 16:00:03.55,0.119,-0.18,-0.904,27453478063.0,15.793,-6.707,-16.037
153,153,2016-01-09 16:00:03.59,0.121,-0.214,-0.884,27499246969.0,15.0,-7.927,-11.524
154,154,2016-01-09 16:00:03.63,0.151,-0.2,-0.928,27503758062.0,16.585,-11.829,-6.159
155,155,2016-01-09 16:00:03.67,0.153,-0.2,-0.965,27549246030.0,17.073,-10.183,-4.268
156,156,2016-01-09 16:00:03.71,0.154,-0.225,-0.993,27553432749.0,16.159,-8.232,-1.646
157,157,2016-01-09 16:00:03.75,0.152,-0.271,-0.994,27599252228.0,14.146,-1.768,0.244
158,158,2016-01-09 16:00:03.79,0.147,-0.295,-0.981,27603716447.0,9.878,-4.756,3.598
159,159,2016-01-09 16:00:03.83,0.111,-0.284,-0.989,27649285250.0,3.963,-0.549,6.89
160,160,2016-01-09 16:00:03.87,0.094,-0.254,-0.99,27653424104.0,0.183,0.427,10.427
161,161,2016-01-09 16:00:03.91,0.116,-0.244,-0.97,27699267437.0,-1.463,2.134,15.305
162,162,2016-01-09 16:00:03.95,0.116,-0.201,-0.993,27703867489.0,-1.89,-1.951,17.622
163,163,2016-01-09 16:00:03.99,0.112,-0.167,-0.994,27799274314.0,-2.439,-2.744,18.963
164,164,2016-01-09 16:00:04.03,0.092,-0.193,-0.953,27803757075.0,-3.537,-6.098,24.878
165,165,2016-01-09 16:00:04.07,0.059,-0.192,-0.96,27859703531.0,-3.11,-11.829,31.707
166,166,2016-01-09 16:00:04.11,0.085,-0.167,-0.973,27911584781.0,-5.183,-9.451,37.744
167,167,2016-01-09 16:00:04.15,0.067,-0.186,-0.93,27914447229.0,-6.768,-7.927,34.878
168,168,2016-01-09 16:00:04.18,0.063,-0.175,-0.95,27916914833.0,-3.476,-6.037,31.341
169,169,2016-01-09 16:00:04.23,0.05,-0.179,-0.966,27949389468.0,-2.805,0.122,28.598
170,170,2016-01-09 16:00:04.26,0.034,-0.19,-0.984,27953621603.0,-6.768,5.061,25.488
171,171,2016-01-09 16:00:04.30,0.073,-0.177,-0.987,27999602698.0,-5.732,10.366,27.378
172,172,2016-01-09 16:00:04.38,0.008,-0.19,-1.028,28004341239.0,-6.037,12.744,34.634
173,173,2016-01-09 16:00:04.42,0.021,-0.186,-1.006,28052189051.0,-8.171,17.866,32.073
174,174,2016-01-09 16:00:04.46,0.033,-0.171,-0.996,28054773061.0,-10.488,22.439,33.293
175,175,2016-01-09 16:00:04.50,0.041,-0.144,-0.993,28102060041.0,-12.866,14.878,31.585
176,176,2016-01-09 16:00:04.54,0.0,-0.159,-1.002,28104912489.0,-11.341,13.72,27.866
177,177,2016-01-09 16:00:04.58,0.004,-0.14,-0.978,28152137698.0,-10.366,8.293,23.598
178,178,2016-01-09 16:00:04.62,-0.022,-0.135,-0.999,28154701864.0,-8.72,5.427,18.72
179,179,2016-01-09 16:00:04.66,-0.022,-0.138,-0.984,28202112645.0,-4.268,-0.976,13.537
180,180,2016-01-09 16:00:04.70,0.02,-0.15,-1.005,28204756968.0,-3.72,-2.622,10.671
181,181,2016-01-09 16:00:04.74,-0.049,-0.17,-1.012,28352477072.0,-1.037,-6.585,4.878
182,182,2016-01-09 16:00:04.78,-0.066,-0.159,-1.003,28376845249.0,1.585,-10.427,0.061
183,183,2016-01-09 16:00:04.82,-0.018,-0.168,-0.993,28411119364.0,1.037,-6.463,-2.073
184,184,2016-01-09 16:00:04.86,0.016,-0.194,-0.986,28431034624.0,2.439,-18.171,-5.305
185,185,2016-01-09 16:00:04.90,-0.012,-0.212,-0.981,28449260874.0,6.463,-19.207,-9.573
186,186,2016-01-09 16:00:04.94,-0.044,-0.205,-0.992,28453424364.0,11.037,-15.061,-13.232
187,187,2016-01-09 16:00:04.98,-0.046,-0.237,-0.995,28499245301.0,11.28,-8.415,-19.512
188,188,2016-01-09 16:00:05.02,-0.053,-0.246,-0.99,28503418009.0,12.439,-9.634,-24.024
189,189,2016-01-09 16:00:05.06,-0.039,-0.241,-0.994,28549238999.0,14.512,-4.634,-26.402
190,190,2016-01-09 16:00:05.10,-0.047,-0.239,-0.983,28553480041.0,16.159,3.415,-28.293
191,191,2016-01-09 16:00:05.14,-0.032,-0.251,-0.967,28599267280.0,15.305,6.463,-30.976
192,192,2016-01-09 16:00:05.18,0.013,-0.254,-0.957,28603483530.0,12.622,7.012,-33.232
193,193,2016-01-09 16:00:05.22,-0.024,-0.265,-0.967,28651002072.0,10.671,1.098,-36.829
194,194,2016-01-09 16:00:05.26,-0.025,-0.283,-0.98,28663642957.0,10.183,-6.402,-39.756
195,195,2016-01-09 16:00:05.30,-0.019,-0.307,-0.963,28700649468.0,10.427,-7.744,-41.585
196,196,2016-01-09 16:00:05.34,-0.003,-0.293,-0.951,28719042646.0,12.744,-14.146,-41.89
197,197,2016-01-09 16:00:05.38,0.055,-0.266,-0.962,28751614312.0,14.634,-18.11,-42.317
198,198,2016-01-09 16:00:05.42,0.08,-0.28,-0.957,28770301552.0,16.585,-21.28,-41.463
199,199,2016-01-09 16:00:05.46,0.036,-0.319,-0.946,28805599623.0,14.451,-23.171,-37.622
200,200,2016-01-09 16:00:05.50,0.024,-0.329,-0.943,28821534364.0,7.439,-14.939,-31.098
201,201,2016-01-09 16:00:05.54,0.097,-0.324,-0.932,28864096551.0,1.037,-7.439,-25.061
202,202,2016-01-09 16:00:05.58,0.064,-0.337,-0.926,28875748895.0,1.341,-3.171,-25.0
203,203,2016-01-09 16:00:05.62,0.069,-0.364,-0.95,28915359624.0,3.902,-0.061,-23.841
204,204,2016-01-09 16:00:05.66,0.1,-0.33,-0.971,28927251238.0,2.256,9.939,-23.11
205,205,2016-01-09 16:00:05.70,0.114,-0.318,-0.934,28963596030.0,1.341,18.841,-29.634
206,206,2016-01-09 16:00:05.74,0.162,-0.364,-0.901,28975268009.0,11.341,26.463,-28.232
207,207,2016-01-09 16:00:05.78,0.183,-0.385,-0.874,29017304468.0,13.963,31.341,-24.024
208,208,2016-01-09 16:00:05.82,0.163,-0.364,-0.862,29028978322.0,7.622,28.293,-21.89
209,209,2016-01-09 16:00:05.85,0.132,-0.311,-0.864,29063830353.0,2.378,39.573,-20.793
210,210,2016-01-09 16:00:05.90,0.143,-0.25,-0.895,29075191343.0,-2.134,42.5,-23.11
211,211,2016-01-09 16:00:05.94,0.211,-0.198,-0.946,29115274624.0,-9.695,33.841,-25.366
212,212,2016-01-09 16:00:05.97,0.263,-0.201,-0.943,29127278582.0,-13.72,22.5,-30.0
213,213,2016-01-09 16:00:06.01,0.274,-0.214,-0.908,29271290354.0,-16.463,6.28,-36.646
214,214,2016-01-09 16:00:06.05,0.293,-0.217,-0.901,29293841968.0,-19.756,-10.305,-40.488
215,215,2016-01-09 16:00:06.13,0.247,-0.106,-0.925,29333019520.0,-19.329,-20.671,-39.268
216,216,2016-01-09 16:00:06.17,0.245,-0.104,-0.949,29336084468.0,-20.183,-11.037,-42.256
217,217,2016-01-09 16:00:06.21,0.296,-0.137,-0.929,29352414000.0,-19.085,-4.512,-41.829
218,218,2016-01-09 16:00:06.25,0.266,-0.085,-0.934,29355020354.0,-13.659,-11.585,-34.268
219,219,2016-01-09 16:00:06.29,0.282,-0.063,-0.952,29402908114.0,-11.22,-15.183,-34.817
220,220,2016-01-09 16:00:06.33,0.245,-0.073,-0.935,29405944572.0,-11.159,-16.098,-33.293
221,221,2016-01-09 16:00:06.37,0.275,-0.061,-0.967,29453287072.0,-11.037,-24.634,-32.256
222,222,2016-01-09 16:00:06.41,0.271,0.01,-0.955,29456264937.0,-12.256,-20.122,-18.537
223,223,2016-01-09 16:00:06.45,0.241,0.052,-0.919,29502594987.0,-14.268,-13.841,0.488
224,224,2016-01-09 16:00:06.53,0.214,0.064,-1.057,29505735040.0,-11.89,2.134,6.22
225,225,2016-01-09 16:00:06.57,0.233,0.069,-0.995,29554906551.0,-12.927,9.634,18.049
226,226,2016-01-09 16:00:06.61,0.278,0.02,-1.002,29560387644.0,-20.366,6.159,16.585
227,227,2016-01-09 16:00:06.65,0.286,0.041,-1.014,29606998895.0,-12.5,5.915,20.61
228,228,2016-01-09 16:00:06.69,0.24,0.006,-1.0,29652679677.0,-11.098,-1.829,25.0
229,229,2016-01-09 16:00:06.73,0.233,0.006,-1.027,29668853948.0,-2.317,-2.439,22.988
230,230,2016-01-09 16:00:06.77,0.204,-0.022,-1.042,29702349312.0,2.195,-0.61,21.585
231,231,2016-01-09 16:00:06.81,0.191,-0.076,-1.002,29712932333.0,7.256,-1.463,22.317
232,232,2016-01-09 16:00:06.85,0.181,-0.088,-0.987,29756671708.0,12.378,2.073,25.488
233,233,2016-01-09 16:00:06.89,0.149,-0.096,-1.008,29760218791.0,18.049,-0.061,24.634
234,234,2016-01-09 16:00:06.93,0.156,-0.124,-1.043,29799311915.0,21.646,-0.488,23.902
235,235,2016-01-09 16:00:06.97,0.157,-0.208,-1.024,29803546186.0,27.561,1.951,21.89
236,236,2016-01-09 16:00:07.01,0.173,-0.248,-1.041,29849232802.0,34.024,2.988,16.829
237,237,2016-01-09 16:00:07.05,0.21,-0.281,-0.971,29853429416.0,38.963,9.756,17.317
238,238,2016-01-09 16:00:07.09,0.207,-0.348,-0.93,29899206759.0,44.878,12.073,18.354
239,239,2016-01-09 16:00:07.13,0.179,-0.378,-0.939,29903409467.0,52.561,14.268,13.78
240,240,2016-01-09 16:00:07.17,0.181,-0.422,-0.85,29949575458.0,57.683,17.622,8.78
241,241,2016-01-09 16:00:07.21,0.178,-0.481,-0.785,29955563947.0,64.207,23.537,7.317
242,242,2016-01-09 16:00:07.25,0.225,-0.477,-0.745,29999533686.0,70.0,24.695,10.305
243,243,2016-01-09 16:00:07.29,0.234,-0.508,-0.719,30005401238.0,70.427,19.573,8.78
244,244,2016-01-09 16:00:07.33,0.22,-0.58,-0.678,30050925198.0,74.817,10.427,7.012
245,245,2016-01-09 16:00:07.37,0.226,-0.634,-0.647,30152738739.0,75.122,6.707,6.037
246,246,2016-01-09 16:00:07.41,0.215,-0.63,-0.651,30155367645.0,73.78,1.646,4.695
247,247,2016-01-09 16:00:07.45,0.211,-0.671,-0.593,30202110195.0,72.012,-1.707,2.134
248,248,2016-01-09 16:00:07.49,0.227,-0.705,-0.537,30204676966.0,71.707,-0.793,0.366
249,249,2016-01-09 16:00:07.53,0.238,-0.7,-0.5,30252082437.0,67.5,0.671,0.793
250,250,2016-01-09 16:00:07.57,0.227,-0.721,-0.467,30254726760.0,58.659,-3.963,-0.366
251,251,2016-01-09 16:00:07.61,0.206,-0.75,-0.454,30302028322.0,52.378,-4.39,-4.451
252,252,2016-01-09 16:00:07.65,0.191,-0.777,-0.431,30304613061.0,46.22,-1.463,-9.756
253,253,2016-01-09 16:00:07.69,0.203,-0.783,-0.42,30352200352.0,42.134,4.268,-13.171
254,254,2016-01-09 16:00:07.72,0.249,-0.786,-0.426,30354805613.0,36.646,7.561,-14.939
255,255,2016-01-09 16:00:07.76,0.263,-0.805,-0.39,,,,
256,256,2016-01-09 16:00:07.81,0.302,-0.808,-0.386,30451986603.0,23.232,7.805,-12.683
257,257,2016-01-09 16:00:07.88,0.341,-0.768,-0.389,30499212592.0,16.524,7.378,-1.829
258,258,2016-01-09 16:00:07.92,0.346,-0.773,-0.43,30503365404.0,9.817,3.171,5.122
259,259,2016-01-09 16:00:07.96,0.341,-0.771,-0.472,30549221081.0,4.512,5.366,12.866
260,260,2016-01-09 16:00:08.00,0.333,-0.774,-0.47,30553504311.0,-15.183,8.598,18.171
261,261,2016-01-09 16:00:08.00,0.333,-0.774,-0.47,31249587853.0,-28.11,-5.549,-11.463
262,262,2016-01-09 16:00:08.00,-0.072,-0.475,-0.847,30553504311.0,-15.183,8.598,18.171
263,263,2016-01-09 16:00:08.00,-0.072,-0.475,-0.847,31249587853.0,-28.11,-5.549,-11.463
264,264,2016-01-09 16:00:08.04,0.348,-0.771,-0.472,30599209519.0,-20.305,10.793,22.683
265,265,2016-01-09 16:00:08.08,0.351,-0.739,-0.505,30603351758.0,-24.085,9.573,27.988
266,266,2016-01-09 16:00:08.12,0.329,-0.705,-0.533,30656346133.0,-27.317,4.085,33.11
267,267,2016-01-09 16:00:08.16,0.297,-0.703,-0.53,30670058946.0,-29.39,2.622,40.0
268,268,2016-01-09 16:00:08.20,0.266,-0.701,-0.573,30703721811.0,-32.5,4.939,45.915
269,269,2016-01-09 16:00:08.28,0.192,-0.665,-0.644,30719959779.0,-37.439,3.902,50.061
270,270,2016-01-09 16:00:08.32,0.134,-0.673,-0.689,30751542071.0,-40.366,3.902,48.841
271,271,2016-01-09 16:00:08.36,0.109,-0.691,-0.709,30770031186.0,-35.244,8.171,46.22
272,272,2016-01-09 16:00:08.40,0.057,-0.676,-0.743,30801455041.0,-40.915,8.415,42.988
273,273,2016-01-09 16:00:08.44,-0.007,-0.618,-0.755,30820343061.0,-39.878,4.512,37.378
274,274,2016-01-09 16:00:08.48,-0.018,-0.62,-0.741,30861784832.0,-37.012,3.72,34.695
275,275,2016-01-09 16:00:08.52,-0.052,-0.605,-0.787,30864507436.0,-35.122,-0.915,32.561
276,276,2016-01-09 16:00:08.56,-0.063,-0.578,-0.802,30899198478.0,-37.073,-3.841,27.683
277,277,2016-01-09 16:00:08.60,-0.08,-0.576,-0.779,30903442384.0,-35.488,-0.061,22.622
278,278,2016-01-09 16:00:08.64,-0.107,-0.553,-0.814,30949194832.0,-29.512,1.037,18.963
279,279,2016-01-09 16:00:08.68,-0.098,-0.55,-0.81,31049421343.0,-27.5,0.793,13.476
280,280,2016-01-09 16:00:08.72,-0.112,-0.577,-0.82,31053651395.0,-26.89,0.61,9.024
281,281,2016-01-09 16:00:08.76,-0.069,-0.572,-0.824,31099180717.0,-26.89,-0.671,6.585
282,282,2016-01-09 16:00:08.80,-0.086,-0.572,-0.8,31103336550.0,-29.512,-2.378,2.866
283,283,2016-01-09 16:00:08.84,-0.086,-0.544,-0.821,31150876968.0,-28.049,-4.024,0.366
284,284,2016-01-09 16:00:08.88,-0.07,-0.533,-0.821,31181212750.0,-25.549,-1.89,-3.659
285,285,2016-01-09 16:00:08.92,-0.07,-0.529,-0.87,31211686343.0,-25.305,-6.098,-6.402
286,286,2016-01-09 16:00:08.96,-0.065,-0.504,-0.873,31215808218.0,-26.646,-5.549,-9.39
287,287,2016-01-09 16:00:09.04,-0.065,-0.437,-0.876,31253625144.0,-28.049,-5.61,-12.622
288,288,2016-01-09 16:00:09.08,-0.047,-0.423,-0.871,31302212644.0,-29.512,-5.61,-15.183
289,289,2016-01-09 16:00:09.12,-0.036,-0.421,-0.889,31304693582.0,-34.329,-8.476,-16.646
290,290,2016-01-09 16:00:09.16,-0.024,-0.386,-0.925,31352132749.0,-32.683,-5.427,-16.585
291,291,2016-01-09 16:00:09.20,0.007,-0.36,-0.942,31354765874.0,-32.805,-1.89,-16.646
292,292,2016-01-09 16:00:09.24,0.03,-0.352,-0.936,31402065092.0,-34.024,0.183,-15.732
293,293,2016-01-09 16:00:09.28,-0.009,-0.325,-0.955,31404588269.0,-34.939,1.768,-15.0
294,294,2016-01-09 16:00:09.32,-0.034,-0.299,-0.947,31452063166.0,-36.341,4.085,-14.39
295,295,2016-01-09 16:00:09.36,-0.034,-0.269,-0.964,31454612853.0,-38.841,3.537,-13.78
296,296,2016-01-09 16:00:09.40,-0.001,-0.213,-0.996,31509850561.0,-40.488,-1.646,-12.622
297,297,2016-01-09 16:00:09.43,0.017,-0.171,-1.032,31518998478.0,-39.817,-2.561,-8.659
298,298,2016-01-09 16:00:09.47,0.036,-0.156,-1.047,31559807488.0,-39.207,-4.878,-3.598
299,299,2016-01-09 16:00:09.51,0.027,-0.172,-1.048,31568204779.0,-38.78,-1.768,-1.768
300,300,2016-01-09 16:00:09.55,0.023,-0.172,-1.057,31610681706.0,-36.098,2.195,-2.744
301,301,2016-01-09 16:00:09.63,0.026,-0.164,-1.049,31622287227.0,-32.134,5.854,-5.183
302,302,2016-01-09 16:00:09.67,0.014,-0.174,-1.066,31663710300.0,-25.915,4.207,-1.707
303,303,2016-01-09 16:00:09.71,0.036,-0.175,-1.035,31675205404.0,-20.671,2.378,0.671
304,304,2016-01-09 16:00:09.75,0.014,-0.159,-1.035,31713508581.0,-13.415,-1.463,-0.244
305,305,2016-01-09 16:00:09.79,-0.015,-0.204,-0.988,31725057383.0,-8.963,-4.695,-1.524
306,306,2016-01-09 16:00:09.83,-0.016,-0.209,-0.996,31764002227.0,-6.524,-0.854,1.22
307,307,2016-01-09 16:00:09.87,-0.016,-0.176,-1.014,31775381289.0,-5.488,-2.378,4.695
308,308,2016-01-09 16:00:09.91,-0.005,-0.158,-0.968,31813436915.0,0.854,-5.488,5.915
309,309,2016-01-09 16:00:09.95,-0.016,-0.139,-0.944,31824905926.0,6.098,-2.134,6.28
310,310,2016-01-09 16:00:10.03,-0.032,-0.158,-0.935,31951508218.0,6.707,3.78,5.244
311,311,2016-01-09 16:00:10.07,-0.022,-0.151,-0.947,31974669260.0,0.793,7.256,5.793
312,312,2016-01-09 16:00:10.11,-0.002,-0.137,-0.926,32007114518.0,-2.378,8.293,3.78
313,313,2016-01-09 16:00:10.15,-0.009,-0.128,-0.927,32064783998.0,-6.22,7.5,3.293
314,314,2016-01-09 16:00:10.19,0.01,-0.098,-0.927,32070057488.0,-10.427,4.39,3.415
315,315,2016-01-09 16:00:10.23,0.013,-0.084,-0.936,32072837072.0,-16.89,0.061,-2.195
316,316,2016-01-09 16:00:10.27,0.002,0.015,-1.156,32102089780.0,-21.768,-1.28,-5.427
317,317,2016-01-09 16:00:10.31,0.072,0.188,-1.269,32104732853.0,-26.22,4.512,-3.354
318,318,2016-01-09 16:00:10.35,0.049,0.127,-1.087,32152911915.0,-30.793,16.22,6.22
319,319,2016-01-09 16:00:10.39,0.024,0.042,-0.991,32156123112.0,-29.207,16.159,9.207
320,320,2016-01-09 16:00:10.43,0.059,0.097,-0.953,32202509311.0,-17.561,0.854,2.256
321,321,2016-01-09 16:00:10.47,0.03,0.141,-0.987,32204993530.0,-6.89,-11.89,5.427
322,322,2016-01-09 16:00:10.51,0.009,0.102,-1.031,32252258582.0,-3.78,-4.695,8.476
323,323,2016-01-09 16:00:10.55,0.028,0.061,-1.086,32254896915.0,1.646,5.854,9.329
324,324,2016-01-09 16:00:10.59,0.015,0.028,-1.142,32301949673.0,10.915,5.671,6.89
325,325,2016-01-09 16:00:10.63,0.024,-0.053,-1.072,32304498892.0,18.049,4.573,2.866
326,326,2016-01-09 16:00:10.67,0.085,-0.171,-0.998,32352028322.0,28.415,7.988,1.829
327,327,2016-01-09 16:00:10.71,0.087,-0.245,-1.022,32354666655.0,35.976,-1.585,2.744
328,328,2016-01-09 16:00:10.75,0.0,-0.254,-0.997,32401940768.0,37.378,-9.085,-0.061
329,329,2016-01-09 16:00:10.79,-0.038,-0.242,-0.971,32404604883.0,39.939,-0.549,-1.098
330,330,2016-01-09 16:00:10.83,0.011,-0.267,-0.958,32459347644.0,43.841,6.28,0.793
331,331,2016-01-09 16:00:10.87,0.029,-0.309,-0.96,32467436758.0,48.72,-0.793,3.537
332,332,2016-01-09 16:00:10.91,0.027,-0.349,-0.945,32509576029.0,53.659,-0.915,3.598
333,333,2016-01-09 16:00:10.95,0.024,-0.379,-0.932,32518001915.0,56.524,1.402,2.439
334,334,2016-01-09 16:00:10.99,-0.013,-0.409,-0.905,32559937644.0,58.171,2.134,-0.976
335,335,2016-01-09 16:00:11.03,-0.021,-0.442,-0.895,32568336706.0,56.768,2.683,-1.402
336,336,2016-01-09 16:00:11.07,-0.013,-0.46,-0.868,32610977591.0,57.439,0.366,-1.585
337,337,2016-01-09 16:00:11.10,-0.013,-0.506,-0.826,32622579466.0,59.085,-7.073,-4.085
338,338,2016-01-09 16:00:11.14,0.023,-0.573,-0.832,,,,
339,339,2016-01-09 16:00:11.19,0.017,-0.672,-0.781,32676294205.0,63.659,-11.037,-1.524
340,340,2016-01-09 16:00:11.23,-0.013,-0.727,-0.778,32713810143.0,62.5,-9.939,-0.671
341,341,2016-01-09 16:00:11.27,0.002,-0.735,-0.721,32725387903.0,59.329,-3.232,-2.622
342,342,2016-01-09 16:00:11.30,0.013,-0.743,-0.639,32866758686.0,57.988,-1.951,-2.378
343,343,2016-01-09 16:00:11.38,-0.002,-0.731,-0.542,32902351342.0,66.829,-4.939,0.61
344,344,2016-01-09 16:00:11.42,-0.0,-0.763,-0.498,32926433373.0,66.707,-6.098,2.561
345,345,2016-01-09 16:00:11.46,0.025,-0.789,-0.451,32958310040.0,65.427,-5.183,5.0
346,346,2016-01-09 16:00:11.50,0.012,-0.822,-0.428,32976113842.0,69.634,-4.512,6.402
347,347,2016-01-09 16:00:11.54,-0.011,-0.844,-0.389,,,,
348,348,2016-01-09 16:00:11.58,-0.014,-0.888,-0.38,33026674259.0,63.293,1.585,8.232
349,349,2016-01-09 16:00:11.62,-0.011,-0.891,-0.373,33052299988.0,60.183,4.39,7.622
350,350,2016-01-09 16:00:11.66,-0.04,-0.88,-0.341,33063780665.0,55.122,5.488,6.463
351,351,2016-01-09 16:00:11.70,-0.049,-0.847,-0.326,33099266654.0,50.976,6.341,8.902
352,352,2016-01-09 16:00:11.78,-0.069,-0.869,-0.221,33103526706.0,50.427,7.256,6.768
353,353,2016-01-09 16:00:11.82,-0.079,-0.902,-0.197,33149178372.0,48.232,4.268,5.183
354,354,2016-01-09 16:00:11.86,-0.068,-0.931,-0.176,33153445299.0,40.366,0.305,4.512
355,355,2016-01-09 16:00:11.90,-0.072,-0.94,-0.177,33199270247.0,24.817,-2.561,3.598
356,356,2016-01-09 16:00:11.94,-0.08,-0.946,-0.193,33203645299.0,18.171,-2.683,2.622
357,357,2016-01-09 16:00:11.98,-0.066,-0.942,-0.195,33249160560.0,9.207,-4.207,1.768
358,358,2016-01-09 16:00:12.02,-0.081,-0.927,-0.175,33253354622.0,5.427,-2.256,-0.427
359,359,2016-01-09 16:00:12.06,-0.098,-0.934,-0.174,33299168841.0,2.805,-1.037,-2.5
360,360,2016-01-09 16:00:12.10,-0.104,-0.934,-0.186,33303399101.0,-2.195,1.646,-5.549
361,361,2016-01-09 16:00:12.14,-0.118,-0.906,-0.206,33349165509.0,-9.939,2.317,-10.061
362,362,2016-01-09 16:00:12.18,-0.103,-0.884,-0.236,33353449571.0,-17.439,2.561,-13.72
363,363,2016-01-09 16:00:12.22,-0.107,-0.895,-0.246,33399150196.0,-23.476,3.72,-18.354
364,364,2016-01-09 16:00:12.26,-0.093,-0.875,-0.297,33403321446.0,-26.159,2.622,-21.28
365,365,2016-01-09 16:00:12.30,-0.05,-0.87,-0.333,33449154414.0,-31.037,2.927,-24.024
366,366,2016-01-09 16:00:12.34,-0.036,-0.854,-0.396,33453387122.0,-40.732,-3.11,-23.72
367,367,2016-01-09 16:00:12.38,-0.026,-0.806,-0.462,33499144987.0,-49.39,-7.622,-24.146
368,368,2016-01-09 16:00:12.42,0.03,-0.829,-0.528,33503285560.0,-54.695,-7.439,-26.28
369,369,2016-01-09 16:00:12.46,0.077,-0.807,-0.597,33549145247.0,-58.049,-6.341,-20.793
370,370,2016-01-09 16:00:12.50,0.042,-0.732,-0.67,33553388684.0,-63.841,-9.024,-14.695
371,371,2016-01-09 16:00:12.54,0.052,-0.69,-0.687,33599151966.0,-66.22,-10.427,-14.207
372,372,2016-01-09 16:00:12.58,0.076,-0.681,-0.7,33603415872.0,-64.512,-8.11,-14.878
373,373,2016-01-09 16:00:12.62,0.095,-0.677,-0.739,33652220144.0,-59.756,-6.341,-11.463
374,374,2016-01-09 16:00:12.66,0.104,-0.646,-0.801,33752029366.0,-58.171,-6.768,-7.805
375,375,2016-01-09 16:00:12.70,0.116,-0.605,-0.813,33754598063.0,-56.951,-7.683,-5.305
376,376,2016-01-09 16:00:12.74,0.119,-0.556,-0.814,33801029309.0,-51.463,-2.866,-1.037
377,377,2016-01-09 16:00:12.78,0.118,-0.524,-0.823,33851973633.0,-44.329,4.878,3.354
378,378,2016-01-09 16:00:12.82,0.133,-0.521,-0.855,33854581237.0,-40.61,4.207,6.098
379,379,2016-01-09 16:00:12.86,0.139,-0.529,-0.865,33901936185.0,-44.146,4.512,7.195
380,380,2016-01-09 16:00:12.90,0.149,-0.532,-0.875,33904509362.0,-44.024,7.012,10.0
381,381,2016-01-09 16:00:12.94,0.187,-0.529,-0.87,33952133424.0,-36.22,6.159,15.549
382,382,2016-01-09 16:00:12.97,0.202,-0.526,-0.862,33954640299.0,-33.537,4.512,23.232
383,383,2016-01-09 16:00:13.01,0.153,-0.522,-0.844,34001938998.0,-28.232,6.646,30.61
384,384,2016-01-09 16:00:13.06,0.158,-0.515,-0.823,34004550873.0,-23.78,9.878,36.159
385,385,2016-01-09 16:00:13.13,0.053,-0.5,-0.855,34052020717.0,-21.646,17.561,41.829
386,386,2016-01-09 16:00:13.17,0.022,-0.506,-0.875,34054630873.0,-19.573,18.78,39.817
387,387,2016-01-09 16:00:13.21,-0.02,-0.527,-0.872,34101978893.0,-18.537,23.049,37.805
388,388,2016-01-09 16:00:13.25,-0.045,-0.512,-0.877,34104559570.0,-13.841,15.671,36.89
389,389,2016-01-09 16:00:13.29,-0.094,-0.478,-0.886,34152057019.0,-16.341,6.951,29.695
390,390,2016-01-09 16:00:13.33,-0.09,-0.483,-0.881,34154589258.0,-16.098,-3.11,25.61
391,391,2016-01-09 16:00:13.37,-0.07,-0.457,-0.837,34202043580.0,-14.085,-8.78,25.427
392,392,2016-01-09 16:00:13.41,-0.09,-0.465,-0.833,34204597122.0,-14.024,-11.829,24.39
393,393,2016-01-09 16:00:13.45,-0.122,-0.429,-0.894,34252032435.0,-15.305,-11.646,24.085
394,394,2016-01-09 16:00:13.53,-0.203,-0.413,-0.943,34254620300.0,-15.183,-9.878,16.463
395,395,2016-01-09 16:00:13.57,-0.173,-0.429,-0.931,34301913372.0,-12.317,-7.805,12.561
396,396,2016-01-09 16:00:13.61,-0.131,-0.4,-0.942,34304486237.0,-10.671,0.366,8.78
397,397,2016-01-09 16:00:13.65,-0.16,-0.403,-0.912,34363918893.0,-7.622,-6.768,3.476
398,398,2016-01-09 16:00:13.69,-0.15,-0.424,-0.911,34372563998.0,-5.671,-4.207,2.622
399,399,2016-01-09 16:00:13.73,-0.174,-0.41,-0.915,34409528789.0,-3.476,1.28,-1.22
400,400,2016-01-09 16:00:13.77,-0.162,-0.431,-0.903,34454649882.0,-3.659,-4.207,-8.293
401,401,2016-01-09 16:00:13.81,-0.17,-0.447,-0.9,34467665038.0,6.159,-5.732,-13.11
402,402,2016-01-09 16:00:13.85,-0.19,-0.466,-0.883,34501326184.0,9.146,-5.793,-17.073
403,403,2016-01-09 16:00:13.89,-0.164,-0.49,-0.875,34556615246.0,7.866,-4.146,-19.573
404,404,2016-01-09 16:00:13.93,-0.136,-0.475,-0.869,34575323894.0,7.866,-2.134,-22.317
405,405,2016-01-09 16:00:13.97,-0.131,-0.476,-0.852,34702133372.0,6.098,-4.634,-28.72
406,406,2016-01-09 16:00:14.01,-0.087,-0.485,-0.854,34726424153.0,6.707,-6.89,-30.244
407,407,2016-01-09 16:00:14.05,-0.075,-0.496,-0.852,34759924778.0,5.122,-7.195,-32.134
408,408,2016-01-09 16:00:14.09,-0.098,-0.507,-0.849,34785206288.0,4.268,-5.793,-37.134
409,409,2016-01-09 16:00:14.13,-0.069,-0.486,-0.841,34799127539.0,3.293,2.866,-39.817
410,410,2016-01-09 16:00:14.17,-0.031,-0.507,-0.844,34803434101.0,4.329,7.012,-40.183
411,411,2016-01-09 16:00:14.21,-0.028,-0.502,-0.856,34849122226.0,5.244,5.671,-45.061
412,412,2016-01-09 16:00:14.25,0.037,-0.481,-0.854,34853735247.0,3.72,2.866,-47.622
413,413,2016-01-09 16:00:14.29,0.06,-0.48,-0.852,34899099309.0,2.073,-0.732,-46.707
414,414,2016-01-09 16:00:14.33,0.05,-0.477,-0.841,34903306236.0,2.622,-10.976,-46.646
415,415,2016-01-09 16:00:14.37,0.039,-0.488,-0.836,34949084986.0,-2.683,-11.098,-40.305
416,416,2016-01-09 16:00:14.41,0.115,-0.423,-0.869,34953521757.0,-10.549,-11.585,-30.732
417,417,2016-01-09 16:00:14.45,0.14,-0.404,-0.901,34999109673.0,-16.159,-13.963,-18.415
418,418,2016-01-09 16:00:14.49,0.055,-0.409,-0.921,35003311079.0,-16.28,-14.085,-13.598
419,419,2016-01-09 16:00:14.53,0.077,-0.41,-0.915,35049087123.0,-20.549,0.61,-8.902
420,420,2016-01-09 16:00:14.56,0.133,-0.407,-0.911,,,,
421,421,2016-01-09 16:00:14.61,0.168,-0.387,-0.921,35102511601.0,-16.159,-2.988,6.707
422,422,2016-01-09 16:00:14.65,0.135,-0.39,-0.928,35115929517.0,-14.939,-3.78,14.207
423,423,2016-01-09 16:00:14.69,0.116,-0.405,-0.937,35150328007.0,-8.841,2.317,20.0
424,424,2016-01-09 16:00:14.72,0.125,-0.407,-0.914,35162833788.0,-6.22,10.0,22.073
425,425,2016-01-09 16:00:14.76,0.089,-0.432,-0.912,35201299257.0,-6.707,15.061,27.927
426,426,2016-01-09 16:00:14.80,0.068,-0.396,-0.934,35262797018.0,-6.037,20.183,33.72
427,427,2016-01-09 16:00:14.84,0.067,-0.393,-0.925,35271828580.0,-7.805,27.866,36.89
428,428,2016-01-09 16:00:14.88,0.056,-0.402,-0.911,35307999465.0,-7.5,26.829,38.841
429,429,2016-01-09 16:00:14.92,0.04,-0.377,-0.913,35350750976.0,-8.11,20.061,40.244
430,430,2016-01-09 16:00:14.96,0.002,-0.397,-0.898,35365226236.0,-7.927,10.122,39.207
431,431,2016-01-09 16:00:15.00,-0.005,-0.373,-0.925,35405613320.0,-4.451,-1.28,34.573
432,432,2016-01-09 16:00:15.00,-0.005,-0.373,-0.925,36099239467.0,1.28,-1.829,2.866
433,433,2016-01-09 16:00:15.00,-0.407,-0.49,-0.823,35405613320.0,-4.451,-1.28,34.573
434,434,2016-01-09 16:00:15.00,-0.407,-0.49,-0.823,36099239467.0,1.28,-1.829,2.866
435,435,2016-01-09 16:00:15.04,-0.014,-0.357,-0.923,35417673007.0,-5.366,-8.537,33.78
436,436,2016-01-09 16:00:15.08,-0.059,-0.395,-0.919,35451197330.0,-6.037,-15.915,36.829
437,437,2016-01-09 16:00:15.12,-0.081,-0.418,-0.902,35470659674.0,-2.317,-20.671,35.061
438,438,2016-01-09 16:00:15.16,-0.095,-0.392,-0.915,35501218320.0,1.585,-24.268,32.073
439,439,2016-01-09 16:00:15.20,-0.137,-0.411,-0.924,35517554205.0,5.366,-26.707,28.841
440,440,2016-01-09 16:00:15.28,-0.171,-0.443,-0.906,35651184466.0,6.402,-26.22,30.549
441,441,2016-01-09 16:00:15.32,-0.223,-0.432,-0.913,35677197539.0,7.134,-22.622,29.207
442,442,2016-01-09 16:00:15.36,-0.231,-0.435,-0.886,35708305976.0,10.976,-23.11,27.317
443,443,2016-01-09 16:00:15.40,-0.269,-0.463,-0.855,35726147018.0,13.232,-23.11,25.183
444,444,2016-01-09 16:00:15.44,-0.257,-0.455,-0.842,35752328581.0,13.415,-23.841,28.476
445,445,2016-01-09 16:00:15.48,-0.246,-0.442,-0.835,35791395352.0,13.659,-22.134,31.463
446,446,2016-01-09 16:00:15.52,-0.287,-0.451,-0.818,35815565247.0,18.232,-25.366,25.244
447,447,2016-01-09 16:00:15.56,-0.331,-0.462,-0.808,35827042643.0,23.963,-24.146,28.537
448,448,2016-01-09 16:00:15.60,-0.353,-0.477,-0.809,35849248217.0,21.524,-14.024,30.61
449,449,2016-01-09 16:00:15.64,-0.335,-0.488,-0.794,35853596081.0,17.622,-8.598,29.512
450,450,2016-01-09 16:00:15.68,-0.382,-0.502,-0.79,35899119204.0,16.89,-3.841,26.646
451,451,2016-01-09 16:00:15.72,-0.402,-0.506,-0.81,35903413215.0,18.232,1.829,22.073
452,452,2016-01-09 16:00:15.76,-0.402,-0.511,-0.815,35949068371.0,16.159,10.427,17.317
453,453,2016-01-09 16:00:15.80,-0.397,-0.483,-0.803,35953319725.0,13.659,9.634,11.402
454,454,2016-01-09 16:00:15.84,-0.342,-0.493,-0.801,35999082434.0,9.512,8.841,12.317
455,455,2016-01-09 16:00:15.88,-0.386,-0.493,-0.826,36003338059.0,5.976,6.829,12.256
456,456,2016-01-09 16:00:15.92,-0.404,-0.498,-0.84,36049100196.0,3.963,-0.793,9.268
457,457,2016-01-09 16:00:15.96,-0.394,-0.501,-0.84,36053417800.0,0.183,2.195,7.317
458,458,2016-01-09 16:00:16.04,-0.411,-0.471,-0.81,36103439466.0,1.098,-3.476,-1.829
459,459,2016-01-09 16:00:16.08,-0.399,-0.475,-0.787,36152012225.0,-0.244,-2.439,-3.902
460,460,2016-01-09 16:00:16.12,-0.403,-0.468,-0.799,36154598631.0,-2.073,-3.232,-7.012
461,461,2016-01-09 16:00:16.16,-0.452,-0.493,-0.821,36208015194.0,-3.171,-0.549,-12.317
462,462,2016-01-09 16:00:16.20,-0.427,-0.49,-0.86,36228646236.0,-2.927,2.561,-13.049
463,463,2016-01-09 16:00:16.24,-0.42,-0.482,-0.87,36270803371.0,-1.037,11.89,-18.293
464,464,2016-01-09 16:00:16.28,-0.376,-0.499,-0.837,36286325246.0,2.622,12.622,-25.732
465,465,2016-01-09 16:00:16.32,-0.367,-0.518,-0.822,36312978892.0,5.854,11.951,-30.061
466,466,2016-01-09 16:00:16.35,-0.36,-0.521,-0.793,36315258163.0,5.061,2.622,-30.671
467,467,2016-01-09 16:00:16.40,-0.326,-0.524,-0.81,36352016131.0,3.293,-2.805,-29.817
468,468,2016-01-09 16:00:16.44,-0.296,-0.529,-0.823,36354657329.0,4.939,-3.841,-30.854
469,469,2016-01-09 16:00:16.47,-0.283,-0.52,-0.792,36402014465.0,7.805,-6.098,-34.207
470,470,2016-01-09 16:00:16.52,-0.241,-0.531,-0.76,36404690767.0,9.634,-3.049,-36.585
471,471,2016-01-09 16:00:16.55,-0.263,-0.557,-0.748,36552054778.0,9.695,-2.073,-37.622
472,472,2016-01-09 16:00:16.59,-0.254,-0.559,-0.739,36554672591.0,8.902,-4.695,-39.024
473,473,2016-01-09 16:00:16.63,-0.22,-0.583,-0.729,36601978631.0,7.561,0.0,-38.537
474,474,2016-01-09 16:00:16.67,-0.156,-0.577,-0.712,36604578840.0,8.293,-0.793,-37.012
475,475,2016-01-09 16:00:16.71,-0.145,-0.617,-0.716,36651967330.0,3.72,-1.646,-34.512
476,476,2016-01-09 16:00:16.75,-0.203,-0.645,-0.732,36654557174.0,-0.488,-1.463,-35.427
477,477,2016-01-09 16:00:16.79,-0.168,-0.64,-0.742,,,,
478,478,2016-01-09 16:00:16.83,-0.138,-0.635,-0.784,36704565922.0,-9.939,11.037,-27.683
479,479,2016-01-09 16:00:16.87,-0.135,-0.629,-0.82,36758979256.0,-11.707,10.488,-26.037
480,480,2016-01-09 16:00:16.91,-0.114,-0.615,-0.828,36768295350.0,-16.22,12.378,-27.195
481,481,2016-01-09 16:00:16.95,-0.08,-0.575,-0.834,36810720402.0,-20.854,13.598,-25.244
482,482,2016-01-09 16:00:17.03,0.01,-0.489,-0.859,36822444777.0,-22.073,8.659,-20.732
483,483,2016-01-09 16:00:17.07,0.023,-0.471,-0.86,36863480663.0,-23.232,1.585,-17.988
484,484,2016-01-09 16:00:17.11,0.029,-0.465,-0.87,36876517537.0,-20.915,-2.378,-15.61
485,485,2016-01-09 16:00:17.15,0.011,-0.469,-0.889,36916731392.0,-21.402,-1.585,-13.598
486,486,2016-01-09 16:00:17.19,0.002,-0.431,-0.924,36928327537.0,-21.89,2.866,-10.366
487,487,2016-01-09 16:00:17.23,0.007,-0.457,-0.924,36963395767.0,-22.195,8.598,-4.512
488,488,2016-01-09 16:00:17.27,0.01,-0.453,-0.938,36999155767.0,-20.488,10.915,0.244
489,489,2016-01-09 16:00:17.31,-0.001,-0.428,-0.944,37003451131.0,-20.244,16.402,0.427
490,490,2016-01-09 16:00:17.35,0.014,-0.425,-0.923,37049191340.0,-13.841,18.476,-0.366
491,491,2016-01-09 16:00:17.39,0.0,-0.419,-0.911,37053664621.0,-5.61,15.671,-0.549
492,492,2016-01-09 16:00:17.43,0.011,-0.441,-0.912,37099183996.0,-0.915,10.976,-0.183
493,493,2016-01-09 16:00:17.47,0.005,-0.477,-0.909,37108182433.0,3.841,6.829,0.244
494,494,2016-01-09 16:00:17.51,-0.006,-0.503,-0.912,37149165402.0,10.183,2.317,-1.463
495,495,2016-01-09 16:00:17.55,-0.026,-0.499,-0.893,37151976288.0,15.854,2.012,-5.976
496,496,2016-01-09 16:00:17.59,-0.04,-0.507,-0.865,37199202329.0,20.061,6.28,-10.488
497,497,2016-01-09 16:00:17.63,-0.022,-0.521,-0.851,37201077329.0,23.598,8.354,-11.28
498,498,2016-01-09 16:00:17.67,0.012,-0.553,-0.828,37249391913.0,24.024,8.963,-11.037
499,499,2016-01-09 16:00:17.71,0.022,-0.581,-0.8,37253202017.0,24.878,7.5,-10.732
500,500,2016-01-09 16:00:17.75,0.042,-0.597,-0.802,37299710871.0,27.317,6.89,-11.646
501,501,2016-01-09 16:00:17.79,0.06,-0.615,-0.791,37303957017.0,30.122,7.683,-13.415
502,502,2016-01-09 16:00:17.83,0.076,-0.632,-0.741,37349654413.0,33.902,7.622,-13.72
503,503,2016-01-09 16:00:17.87,0.076,-0.658,-0.707,37450560923.0,39.146,10.427,-12.866
504,504,2016-01-09 16:00:17.91,0.083,-0.689,-0.68,37453228579.0,41.098,7.805,-14.024
505,505,2016-01-09 16:00:17.95,0.121,-0.699,-0.65,37500626496.0,41.89,3.476,-15.122
506,506,2016-01-09 16:00:17.99,0.151,-0.71,-0.603,37503245454.0,43.171,2.378,-10.61
507,507,2016-01-09 16:00:18.03,0.161,-0.719,-0.583,37550556965.0,45.305,0.793,-4.39
508,508,2016-01-09 16:00:18.07,0.143,-0.735,-0.572,37552737694.0,43.659,2.195,-1.159
509,509,2016-01-09 16:00:18.11,0.115,-0.754,-0.534,37601267433.0,40.061,2.866,-0.671
510,510,2016-01-09 16:00:18.14,0.119,-0.76,-0.526,37603532953.0,37.683,6.159,-0.549
511,511,2016-01-09 16:00:18.18,0.116,-0.772,-0.5,37651296444.0,36.707,7.378,-0.366
512,512,2016-01-09 16:00:18.22,0.152,-0.8,-0.478,,,,
513,513,2016-01-09 16:00:18.27,0.172,-0.824,-0.474,37701679777.0,33.293,4.756,4.573
514,514,2016-01-09 16:00:18.30,0.143,-0.808,-0.471,37705523839.0,29.329,-2.744,12.195
515,515,2016-01-09 16:00:18.34,0.146,-0.827,-0.447,37755033371.0,22.5,-3.476,19.695
516,516,2016-01-09 16:00:18.38,0.19,-0.835,-0.43,37800533058.0,17.073,-0.61,26.707
517,517,2016-01-09 16:00:18.42,0.198,-0.802,-0.433,37821364985.0,10.732,6.341,33.537
518,518,2016-01-09 16:00:18.46,0.188,-0.792,-0.433,37852222330.0,3.902,7.927,40.671
519,519,2016-01-09 16:00:18.50,0.126,-0.818,-0.431,37887174830.0,-1.768,6.951,47.378
520,520,2016-01-09 16:00:18.54,0.088,-0.827,-0.472,37913585299.0,-8.476,7.5,53.78
521,521,2016-01-09 16:00:18.58,0.048,-0.8,-0.504,37916346861.0,-16.28,7.744,58.598
522,522,2016-01-09 16:00:18.62,-0.017,-0.79,-0.549,37949106549.0,-20.793,5.305,59.451
523,523,2016-01-09 16:00:18.66,-0.074,-0.789,-0.575,37953448892.0,-22.256,6.098,60.305
524,524,2016-01-09 16:00:18.70,-0.163,-0.765,-0.612,37999052745.0,-29.024,8.598,61.402
525,525,2016-01-09 16:00:18.74,-0.197,-0.687,-0.631,38003321599.0,-32.866,10.488,61.89
526,526,2016-01-09 16:00:18.78,-0.225,-0.652,-0.672,38049106341.0,-34.573,7.5,56.341
527,527,2016-01-09 16:00:18.82,-0.273,-0.647,-0.686,38053371028.0,-36.159,9.573,53.232
528,528,2016-01-09 16:00:18.86,-0.249,-0.576,-0.702,38099092122.0,-40.793,12.195,50.427
529,529,2016-01-09 16:00:18.90,-0.292,-0.562,-0.745,38103328892.0,-43.232,10.976,45.183
530,530,2016-01-09 16:00:18.94,-0.307,-0.588,-0.77,38150204308.0,-43.232,13.78,43.537
531,531,2016-01-09 16:00:18.98,-0.328,-0.565,-0.812,38161224048.0,-42.988,12.744,39.878
532,532,2016-01-09 16:00:19.02,-0.35,-0.535,-0.823,38201417069.0,-41.159,9.512,34.878
533,533,2016-01-09 16:00:19.06,-0.364,-0.542,-0.844,38219200246.0,-37.5,12.561,33.963
534,534,2016-01-09 16:00:19.10,-0.381,-0.534,-0.87,38349322693.0,-33.902,4.878,34.329
535,535,2016-01-09 16:00:19.14,-0.38,-0.51,-0.859,38353706703.0,-34.39,-1.768,31.037
536,536,2016-01-09 16:00:19.18,-0.385,-0.477,-0.865,38399365870.0,-34.512,-2.073,28.171
537,537,2016-01-09 16:00:19.22,-0.388,-0.446,-0.869,38403725766.0,-31.585,-6.646,25.488
538,538,2016-01-09 16:00:19.26,-0.407,-0.456,-0.839,38449300974.0,-28.841,-11.037,21.646
539,539,2016-01-09 16:00:19.30,-0.417,-0.464,-0.848,38453511964.0,-26.463,-11.89,19.085
540,540,2016-01-09 16:00:19.34,-0.458,-0.432,-0.862,38499100141.0,-23.598,-15.366,15.549
541,541,2016-01-09 16:00:19.38,-0.459,-0.425,-0.849,38503442433.0,-18.049,-17.5,12.622
542,542,2016-01-09 16:00:19.42,-0.466,-0.417,-0.84,38549010194.0,-11.341,-16.098,12.073
543,543,2016-01-09 16:00:19.46,-0.477,-0.412,-0.833,38553164777.0,-5.671,-16.037,10.793
544,544,2016-01-09 16:00:19.50,-0.477,-0.421,-0.818,38602027329.0,-1.89,-14.451,9.695
545,545,2016-01-09 16:00:19.54,-0.489,-0.417,-0.796,38604666079.0,-0.366,-9.268,7.561
546,546,2016-01-09 16:00:19.58,-0.496,-0.403,-0.799,38659573215.0,1.28,-6.341,6.646
547,547,2016-01-09 16:00:19.62,-0.493,-0.388,-0.806,38667929308.0,3.232,-4.146,7.317
548,548,2016-01-09 16:00:19.66,-0.492,-0.395,-0.805,38702104256.0,4.024,-3.78,5.366
549,549,2016-01-09 16:00:19.70,-0.504,-0.409,-0.806,38704653944.0,4.085,-2.256,4.207
550,550,2016-01-09 16:00:19.74,-0.519,-0.416,-0.807,38751841077.0,3.11,-0.915,4.329
551,551,2016-01-09 16:00:19.78,-0.525,-0.42,-0.812,38754400765.0,1.402,-1.341,4.207
552,552,2016-01-09 16:00:19.81,-0.513,-0.424,-0.816,,,,
553,553,2016-01-09 16:00:19.86,-0.522,-0.429,-0.807,38804583215.0,0.61,-2.927,2.256
554,554,2016-01-09 16:00:19.90,-0.543,-0.424,-0.802,38851863735.0,1.524,-3.78,0.366
555,555,2016-01-09 16:00:19.94,-0.526,-0.419,-0.787,38854481339.0,1.524,-3.354,-1.22
556,556,2016-01-09 16:00:19.97,-0.529,-0.425,-0.783,38901982642.0,2.134,-2.988,-1.951
557,557,2016-01-09 16:00:20.01,-0.53,-0.432,-0.771,38904666027.0,2.988,-5.183,-3.11
558,558,2016-01-09 16:00:20.05,-0.535,-0.434,-0.774,38952029464.0,2.012,-5.305,-3.232
559,559,2016-01-09 16:00:20.10,-0.538,-0.433,-0.788,38954615297.0,2.927,-4.146,-3.659
560,560,2016-01-09 16:00:20.13,-0.532,-0.444,-0.77,39010660089.0,4.695,-2.988,-4.634
561,561,2016-01-09 16:00:20.17,-0.523,-0.444,-0.773,39019380193.0,4.939,-1.524,-6.22
562,562,2016-01-09 16:00:20.21,-0.529,-0.445,-0.783,39059908162.0,3.963,-2.439,-7.012
563,563,2016-01-09 16:00:20.25,-0.512,-0.455,-0.765,39068515089.0,2.927,-1.524,-7.622
564,564,2016-01-09 16:00:20.29,-0.52,-0.457,-0.765,39109684620.0,2.683,-2.012,-9.024
565,565,2016-01-09 16:00:20.33,-0.522,-0.462,-0.773,39118671755.0,3.11,-1.524,-9.451
566,566,2016-01-09 16:00:20.37,-0.51,-0.476,-0.772,39251206599.0,2.134,-2.195,-8.72
567,567,2016-01-09 16:00:20.41,-0.515,-0.478,-0.771,39275506965.0,1.89,-2.988,-10.305
568,568,2016-01-09 16:00:20.45,-0.505,-0.479,-0.768,39313806183.0,2.012,-2.561,-12.988
569,569,2016-01-09 16:00:20.49,-0.484,-0.486,-0.75,39330615090.0,2.744,-1.524,-12.683
570,570,2016-01-09 16:00:00.69,,,,25403271554.0,-36.28,-7.927,-2.866
571,571,2016-01-09 16:00:02.52,,,,26704722334.0,5.854,6.402,2.439
572,572,2016-01-09 16:00:07.77,,,,30401296811.0,29.146,7.683,-14.451
573,573,2016-01-09 16:00:11.15,,,,32664523216.0,61.341,-8.171,-2.5
574,574,2016-01-09 16:00:11.55,,,,33002220821.0,67.866,-3.415,7.012
575,575,2016-01-09 16:00:14.57,,,,35053598581.0,-22.012,8.171,-1.28
576,576,2016-01-09 16:00:16.80,,,,36701973370.0,-6.768,4.878,-32.927
577,577,2016-01-09 16:00:18.23,,,,37654750142.0,35.122,6.707,0.732
578,578,2016-01-09 16:00:19.82,,,,38801931705.0,0.122,-1.402,3.415
579,0,2016-01-09 16:02:22.71,-0.29,-0.8,-0.498,,,,
580,1,2016-01-09 16:02:22.76,-0.286,-0.81,-0.506,26058073062.0,-0.976,0.488,-1.89
581,2,2016-01-09 16:02:22.79,-0.287,-0.809,-0.506,26101691760.0,-0.793,-0.061,-1.951
582,3,2016-01-09 16:02:22.83,-0.288,-0.81,-0.509,26106908114.0,0.061,-0.305,-1.707
583,4,2016-01-09 16:02:22.88,-0.293,-0.808,-0.511,26153781031.0,-0.183,-0.549,-1.89
584,5,2016-01-09 16:02:22.92,-0.292,-0.814,-0.5,26157002124.0,-0.488,-0.305,-1.28
585,6,2016-01-09 16:02:22.95,-0.302,-0.817,-0.496,26203838739.0,-1.646,-1.28,0.061
586,7,2016-01-09 16:02:22.99,-0.292,-0.806,-0.504,26206646864.0,-2.927,-1.28,1.037
587,8,2016-01-09 16:02:23.03,-0.293,-0.803,-0.506,26251651291.0,-1.098,-0.549,0.671
588,9,2016-01-09 16:02:23.07,-0.299,-0.808,-0.505,26253907281.0,0.244,0.976,0.366
589,10,2016-01-09 16:02:23.11,-0.296,-0.809,-0.508,26301648270.0,-1.768,1.098,0.366
590,11,2016-01-09 16:02:23.15,-0.294,-0.81,-0.511,26304103062.0,-1.951,2.073,0.061
591,12,2016-01-09 16:02:23.23,-0.291,-0.801,-0.508,26351564156.0,-1.402,2.744,1.402
592,13,2016-01-09 16:02:23.27,-0.303,-0.813,-0.507,26354311760.0,-0.732,2.195,2.317
593,14,2016-01-09 16:02:23.31,-0.33,-0.812,-0.501,26500188479.0,-2.805,-0.671,3.171
594,15,2016-01-09 16:02:23.35,-0.306,-0.802,-0.511,26502878270.0,-3.415,-2.134,2.439
595,16,2016-01-09 16:02:23.39,-0.296,-0.808,-0.51,26549835614.0,-3.049,-4.207,1.463
596,17,2016-01-09 16:02:23.43,-0.32,-0.813,-0.507,26601173687.0,-3.902,-4.634,-1.28
597,18,2016-01-09 16:02:23.47,-0.311,-0.811,-0.517,26603957593.0,-3.902,-2.744,-3.415
598,19,2016-01-09 16:02:23.51,-0.321,-0.793,-0.52,26651145875.0,-3.171,-4.512,-4.878
599,20,2016-01-09 16:02:23.55,-0.328,-0.791,-0.519,26653837854.0,-2.256,-3.537,-5.366
600,21,2016-01-09 16:02:23.59,-0.325,-0.791,-0.514,26751607229.0,-2.134,-1.463,-5.122
601,22,2016-01-09 16:02:23.63,-0.315,-0.798,-0.513,26754484260.0,-2.317,-0.732,-8.476
602,23,2016-01-09 16:02:23.67,-0.316,-0.8,-0.526,26801604781.0,-1.707,-2.683,-10.915
603,24,2016-01-09 16:02:23.71,-0.303,-0.808,-0.527,26804661395.0,-2.561,-3.415,-13.537
604,25,2016-01-09 16:02:23.75,-0.297,-0.814,-0.509,26851841812.0,-2.622,-3.476,-16.341
605,26,2016-01-09 16:02:23.79,-0.284,-0.819,-0.505,26854344624.0,-2.012,-3.232,-18.537
606,27,2016-01-09 16:02:23.83,-0.271,-0.814,-0.509,26901441395.0,-0.976,-3.476,-18.659
607,28,2016-01-09 16:02:23.87,-0.273,-0.814,-0.524,27001807072.0,0.732,-2.622,-20.488
608,29,2016-01-09 16:02:23.91,-0.285,-0.799,-0.523,27004679520.0,1.402,-0.488,-23.963
609,30,2016-01-09 16:02:23.95,-0.274,-0.824,-0.489,27051766552.0,2.927,-1.585,-26.524
610,31,2016-01-09 16:02:23.99,-0.239,-0.835,-0.493,27099867645.0,2.683,-5.061,-26.037
611,32,2016-01-09 16:02:24.03,-0.232,-0.815,-0.495,27103498374.0,0.976,-8.11,-27.134
612,33,2016-01-09 16:02:24.07,-0.234,-0.82,-0.486,27149767437.0,5.915,-5.61,-30.549
613,34,2016-01-09 16:02:24.11,-0.221,-0.83,-0.468,27202394312.0,4.329,-6.463,-33.72
614,35,2016-01-09 16:02:24.15,-0.209,-0.837,-0.466,27204633635.0,0.244,-9.024,-37.317
615,36,2016-01-09 16:02:24.19,-0.184,-0.82,-0.471,27251609416.0,-2.744,-12.378,-42.256
616,37,2016-01-09 16:02:24.23,-0.156,-0.812,-0.473,27255270249.0,-4.878,-14.817,-48.049
617,38,2016-01-09 16:02:24.27,-0.122,-0.831,-0.459,27302245770.0,-8.354,-14.634,-53.354
618,39,2016-01-09 16:02:24.31,-0.102,-0.811,-0.485,27304763947.0,-14.512,-14.878,-55.488
619,40,2016-01-09 16:02:24.35,-0.073,-0.793,-0.499,27353057229.0,-19.39,-14.451,-57.927
620,41,2016-01-09 16:02:24.39,-0.031,-0.797,-0.505,27355878270.0,-20.976,-11.585,-59.512
621,42,2016-01-09 16:02:24.42,0.012,-0.797,-0.519,,,,
622,43,2016-01-09 16:02:24.47,0.05,-0.779,-0.546,27404842437.0,-30.061,-8.171,-63.354
623,44,2016-01-09 16:02:24.51,0.074,-0.75,-0.575,27452437489.0,-33.963,-7.134,-65.732
624,45,2016-01-09 16:02:24.55,0.069,-0.726,-0.607,27454648947.0,-36.646,-8.72,-66.28
625,46,2016-01-09 16:02:24.58,0.107,-0.7,-0.648,27501469677.0,-40.061,-10.549,-66.159
626,47,2016-01-09 16:02:24.62,0.111,-0.678,-0.657,27504096708.0,-44.024,-10.427,-66.28
627,48,2016-01-09 16:02:24.66,0.13,-0.623,-0.698,,,,
628,49,2016-01-09 16:02:24.70,0.2,-0.57,-0.736,27554009729.0,-46.768,-18.293,-59.329
629,50,2016-01-09 16:02:24.74,0.24,-0.527,-0.717,27601519624.0,-49.939,-19.329,-58.171
630,51,2016-01-09 16:02:24.78,0.296,-0.447,-0.75,27604054364.0,-50.854,-17.561,-56.707
631,52,2016-01-09 16:02:24.82,0.268,-0.428,-0.742,27651490770.0,-51.524,-17.378,-57.195
632,53,2016-01-09 16:02:24.86,0.239,-0.399,-0.757,27654086031.0,-57.683,-12.134,-54.756
633,54,2016-01-09 16:02:24.90,0.268,-0.453,-0.789,27701548374.0,-62.439,-6.28,-47.073
634,55,2016-01-09 16:02:24.98,0.305,-0.177,-1.005,27704175926.0,-62.134,10.732,-51.159
635,56,2016-01-09 16:02:25.02,0.348,-0.142,-0.837,27751556031.0,-64.329,24.817,-49.878
636,57,2016-01-09 16:02:25.06,0.531,-0.137,-0.966,27754151031.0,-41.585,-64.207,-35.793
637,58,2016-01-09 16:02:25.10,0.423,-0.118,-1.056,27801759468.0,-57.317,-45.915,-35.305
638,59,2016-01-09 16:02:25.14,0.324,-0.084,-1.027,28000228218.0,-50.183,-9.756,-26.098
639,60,2016-01-09 16:02:25.18,0.261,-0.038,-1.01,28003240926.0,-40.976,-16.707,-24.573
640,61,2016-01-09 16:02:25.22,0.27,-0.036,-0.954,28049787072.0,-39.695,-27.988,-29.207
641,62,2016-01-09 16:02:25.26,0.26,-0.021,-0.914,28053325041.0,-38.354,-30.122,-26.463
642,63,2016-01-09 16:02:25.30,0.182,0.039,-0.955,28102020822.0,-37.683,-22.866,-23.232
643,64,2016-01-09 16:02:25.34,0.165,0.095,-0.968,28105606864.0,-33.659,-18.841,-25.427
644,65,2016-01-09 16:02:25.38,0.252,0.101,-1.01,28152868270.0,-28.476,-22.317,-22.012
645,66,2016-01-09 16:02:25.42,0.288,0.151,-1.028,28155872489.0,-29.695,-26.768,-15.671
646,67,2016-01-09 16:02:25.46,0.22,0.228,-1.085,28202168426.0,-29.39,-12.988,-5.61
647,68,2016-01-09 16:02:25.50,0.031,0.203,-1.077,28204360093.0,-33.841,8.11,4.39
648,69,2016-01-09 16:02:25.54,-0.036,0.148,-1.062,28251467697.0,-30.671,11.341,8.171
649,70,2016-01-09 16:02:25.58,0.19,0.125,-1.065,28253843426.0,-14.634,-18.963,12.988
650,71,2016-01-09 16:02:25.62,0.309,0.141,-1.085,28302004312.0,0.61,-32.866,28.841
651,72,2016-01-09 16:02:25.66,0.3,0.094,-0.944,28304147958.0,10.61,-18.049,40.0
652,73,2016-01-09 16:02:25.70,0.297,0.038,-1.016,28351765041.0,27.744,-9.817,44.756
653,74,2016-01-09 16:02:25.74,0.254,0.093,-1.106,28353948478.0,32.5,4.146,41.585
654,75,2016-01-09 16:02:25.78,0.113,-0.089,-1.022,28401141187.0,36.402,19.268,18.902
655,76,2016-01-09 16:02:25.82,0.144,-0.136,-0.93,28404091291.0,24.878,26.707,14.573
656,77,2016-01-09 16:02:25.86,0.085,-0.028,-0.858,28451735666.0,28.659,15.854,14.512
657,78,2016-01-09 16:02:25.90,0.044,-0.094,-0.818,28455365926.0,25.122,26.037,3.598
658,79,2016-01-09 16:02:25.94,0.102,-0.099,-0.781,28502009833.0,5.244,28.049,-1.768
659,80,2016-01-09 16:02:25.98,0.118,-0.121,-0.791,28505582749.0,-0.61,23.232,-6.402
660,81,2016-01-09 16:02:26.02,0.124,-0.104,-0.873,28552502749.0,-0.976,7.805,-7.073
661,82,2016-01-09 16:02:26.06,0.2,-0.049,-0.966,28554787333.0,-2.683,-2.317,0.549
662,83,2016-01-09 16:02:26.10,0.255,-0.091,-0.944,28602170822.0,-5.793,-13.841,12.5
663,84,2016-01-09 16:02:26.14,0.309,-0.168,-0.948,28606196603.0,-6.646,-24.268,25.061
664,85,2016-01-09 16:02:26.17,0.342,-0.135,-0.931,28651103635.0,-17.195,-19.512,36.22
665,86,2016-01-09 16:02:26.21,0.314,-0.075,-0.94,28701270354.0,-25.976,-7.073,45.183
666,87,2016-01-09 16:02:26.25,0.363,-0.001,-1.015,,,,
667,88,2016-01-09 16:02:26.29,0.284,-0.07,-1.046,28751397281.0,-25.488,19.573,56.585
668,89,2016-01-09 16:02:26.34,0.161,-0.143,-0.997,28753758270.0,-33.963,40.061,58.902
669,90,2016-01-09 16:02:26.38,0.089,-0.094,-0.99,28804832905.0,-39.207,39.634,53.476
670,91,2016-01-09 16:02:26.41,0.083,-0.085,-0.993,28910293791.0,-32.073,16.098,34.878
671,92,2016-01-09 16:02:26.45,0.275,-0.081,-1.133,28936071134.0,-28.049,-13.415,22.256
672,93,2016-01-09 16:02:26.49,0.375,0.072,-1.053,29049541291.0,-33.598,-28.354,50.183
673,94,2016-01-09 16:02:26.53,0.003,-0.018,-0.954,29053982333.0,-38.78,-4.573,51.22
674,95,2016-01-09 16:02:26.57,0.067,0.001,-0.943,29102571603.0,-24.268,5.122,22.866
675,96,2016-01-09 16:02:26.61,0.174,0.07,-0.92,29105381915.0,-18.232,-29.817,27.988
676,97,2016-01-09 16:02:26.65,0.188,0.068,-0.962,29163574206.0,-18.049,-8.232,24.939
677,98,2016-01-09 16:02:26.73,0.163,0.113,-0.956,29175751863.0,-15.793,-5.549,20.0
678,99,2016-01-09 16:02:26.77,0.179,0.114,-0.985,29217294624.0,-11.341,-4.634,21.951
679,100,2016-01-09 16:02:26.81,0.18,0.127,-0.968,29243734675.0,-12.622,-3.293,25.061
680,101,2016-01-09 16:02:26.85,0.157,0.124,-0.961,29258806134.0,-14.756,0.732,26.951
681,102,2016-01-09 16:02:26.89,0.152,0.111,-0.963,29261485249.0,-17.866,2.073,27.927
682,103,2016-01-09 16:02:26.93,0.174,0.134,-0.988,29302657801.0,-16.037,1.22,29.695
683,104,2016-01-09 16:02:26.97,0.203,0.132,-1.012,29305453373.0,-15.61,-2.378,31.524
684,105,2016-01-09 16:02:27.01,0.214,0.12,-1.016,29352530145.0,-17.317,-0.366,32.805
685,106,2016-01-09 16:02:27.05,0.183,0.135,-1.026,29355336864.0,-18.049,4.268,32.5
686,107,2016-01-09 16:02:27.09,0.172,0.154,-1.047,29402533268.0,-19.268,7.622,27.866
687,108,2016-01-09 16:02:27.13,0.205,0.167,-1.025,29405225560.0,-21.707,6.89,26.159
688,109,2016-01-09 16:02:27.17,0.223,0.183,-1.019,29460097852.0,-19.634,5.549,24.695
689,110,2016-01-09 16:02:27.21,0.209,0.186,-1.022,29468571394.0,-18.354,4.695,20.305
690,111,2016-01-09 16:02:27.25,0.189,0.236,-0.963,29523937957.0,-17.744,5.122,14.878
691,112,2016-01-09 16:02:27.29,0.185,0.217,-0.888,29554132593.0,-13.415,-1.402,10.061
692,113,2016-01-09 16:02:27.33,0.111,0.071,-0.908,29556626551.0,-12.927,-5.549,11.463
693,114,2016-01-09 16:02:27.37,0.115,0.087,-0.93,29559325145.0,-18.537,-4.939,21.098
694,115,2016-01-09 16:02:27.41,0.11,0.139,-0.895,29602795040.0,-15.0,-20.183,23.11
695,116,2016-01-09 16:02:27.45,0.052,0.124,-0.901,29605495561.0,-13.72,-31.707,6.28
696,117,2016-01-09 16:02:27.49,0.166,0.164,-0.987,29652711185.0,-13.476,-51.89,5.0
697,118,2016-01-09 16:02:27.53,0.08,0.256,-1.0,29655271862.0,0.183,-62.927,8.354
698,119,2016-01-09 16:02:27.57,0.004,0.269,-1.066,29701917072.0,-4.451,-37.561,8.11
699,120,2016-01-09 16:02:27.61,-0.037,0.285,-1.087,29812120562.0,-12.134,-34.695,12.988
700,121,2016-01-09 16:02:27.65,-0.042,0.281,-1.047,29828149936.0,-7.683,-25.671,15.183
701,122,2016-01-09 16:02:27.69,-0.032,0.281,-0.99,29873651237.0,-3.78,-23.72,15.854
702,123,2016-01-09 16:02:27.73,-0.023,0.27,-0.997,29971551915.0,-5.488,-22.439,23.354
703,124,2016-01-09 16:02:27.77,-0.027,0.27,-0.989,29987765352.0,-6.037,-14.512,26.585
704,125,2016-01-09 16:02:27.81,0.004,0.242,-0.983,30007175092.0,-4.512,-9.024,25.732
705,126,2016-01-09 16:02:27.85,0.017,0.271,-1.059,30050978372.0,-1.707,-5.915,23.293
706,127,2016-01-09 16:02:27.89,-0.001,0.251,-1.044,30053959101.0,0.915,2.5,7.805
707,128,2016-01-09 16:02:27.93,0.005,0.233,-1.095,30099527853.0,9.634,3.963,-2.988
708,129,2016-01-09 16:02:27.96,0.009,0.198,-1.106,30104174311.0,15.61,-5.61,-8.659
709,130,2016-01-09 16:02:28.01,-0.043,0.107,-1.048,30149476862.0,16.829,-1.829,-12.439
710,131,2016-01-09 16:02:28.04,-0.082,0.012,-1.017,30153956029.0,17.805,2.927,-15.427
711,132,2016-01-09 16:02:28.08,-0.102,-0.045,-0.998,,,,
712,133,2016-01-09 16:02:28.12,-0.095,-0.038,-1.01,30214305197.0,41.829,-12.5,-32.683
713,134,2016-01-09 16:02:28.17,-0.089,-0.035,-1.074,30256695924.0,63.78,-26.829,-42.012
714,135,2016-01-09 16:02:28.20,-0.087,-0.114,-1.085,30269583374.0,75.793,-37.5,-47.073
715,136,2016-01-09 16:02:28.24,-0.013,-0.206,-1.076,30301903530.0,74.512,-18.659,-37.561
716,137,2016-01-09 16:02:28.28,-0.09,-0.26,-0.924,30321006759.0,71.463,5.488,-5.366
717,138,2016-01-09 16:02:28.32,-0.219,-0.152,-0.869,30356896706.0,60.976,24.207,4.634
718,139,2016-01-09 16:02:28.36,-0.23,-0.242,-0.959,30369514571.0,48.78,-9.756,-33.963
719,140,2016-01-09 16:02:28.40,-0.107,-0.296,-0.942,30407145977.0,45.976,-33.902,-51.037
720,141,2016-01-09 16:02:28.48,0.0,-0.296,-0.874,30419843321.0,59.756,-22.134,-34.329
721,142,2016-01-09 16:02:28.52,-0.081,-0.359,-0.837,30452812384.0,64.085,-21.585,-30.915
722,143,2016-01-09 16:02:28.56,-0.113,-0.392,-0.812,30510425977.0,45.366,-9.756,-32.134
723,144,2016-01-09 16:02:28.60,-0.093,-0.417,-0.843,30527445612.0,39.756,-6.707,-37.805
724,145,2016-01-09 16:02:28.64,-0.137,-0.5,-0.856,30560574831.0,32.927,0.427,-42.439
725,146,2016-01-09 16:02:28.68,-0.083,-0.5,-0.864,30577662852.0,24.756,11.524,-43.963
726,147,2016-01-09 16:02:28.72,-0.07,-0.478,-0.842,30605579414.0,25.122,2.378,-45.061
727,148,2016-01-09 16:02:28.76,-0.069,-0.495,-0.816,30608643529.0,20.793,-6.28,-42.561
728,149,2016-01-09 16:02:28.80,0.019,-0.489,-0.822,30649504414.0,8.354,-17.5,-36.89
729,150,2016-01-09 16:02:28.84,0.057,-0.522,-0.823,30653954205.0,2.195,-18.598,-30.61
730,151,2016-01-09 16:02:28.88,0.042,-0.519,-0.843,30699469363.0,-6.28,-4.268,-25.671
731,152,2016-01-09 16:02:28.92,0.024,-0.507,-0.812,30703989936.0,-7.561,6.585,-24.268
732,153,2016-01-09 16:02:28.96,0.057,-0.491,-0.845,30799488427.0,-10.488,11.402,-22.988
733,154,2016-01-09 16:02:29.00,0.114,-0.443,-0.881,30819088946.0,-17.073,9.878,-18.963
734,155,2016-01-09 16:02:29.04,0.129,-0.418,-0.883,30970087644.0,-18.293,10.305,-12.927
735,156,2016-01-09 16:02:29.08,0.112,-0.403,-0.925,30986228373.0,-23.902,12.927,-11.829
736,157,2016-01-09 16:02:29.12,0.122,-0.389,-0.953,31014058842.0,-32.012,11.098,-11.585
737,158,2016-01-09 16:02:29.16,0.113,-0.337,-0.96,31050859154.0,-36.402,8.476,-10.183
738,159,2016-01-09 16:02:29.20,0.093,-0.319,-0.972,31057851029.0,-38.537,10.244,-9.329
739,160,2016-01-09 16:02:29.24,0.093,-0.284,-0.977,31100608477.0,-40.976,11.402,-8.354
740,161,2016-01-09 16:02:29.28,0.117,-0.237,-0.977,31104255456.0,-39.451,5.61,-4.451
741,162,2016-01-09 16:02:29.32,0.138,-0.216,-0.975,31149445406.0,-35.488,1.037,-0.549
742,163,2016-01-09 16:02:29.36,0.097,-0.186,-0.981,31200581287.0,-29.573,3.232,3.72
743,164,2016-01-09 16:02:29.40,0.1,-0.171,-0.971,31204120038.0,-26.159,0.305,3.537
744,165,2016-01-09 16:02:29.44,0.093,-0.171,-0.99,31252911655.0,-22.378,-3.354,0.976
745,166,2016-01-09 16:02:29.48,0.073,-0.145,-0.972,31267456186.0,-19.756,-1.402,-3.11
746,167,2016-01-09 16:02:29.52,0.063,-0.109,-0.98,31304323736.0,-17.622,-0.854,-5.732
747,168,2016-01-09 16:02:29.56,0.029,-0.099,-0.992,31315092904.0,-17.073,-5.793,-8.841
748,169,2016-01-09 16:02:29.60,0.045,-0.106,-0.968,31351804572.0,-16.585,-3.293,-10.732
749,170,2016-01-09 16:02:29.64,0.04,-0.108,-0.949,31364777020.0,-15.122,-7.744,-12.439
750,171,2016-01-09 16:02:29.68,0.083,-0.094,-0.963,31407691757.0,-12.256,-8.293,-11.585
751,172,2016-01-09 16:02:29.72,0.069,-0.094,-0.959,31420702905.0,-8.293,-6.341,-11.098
752,173,2016-01-09 16:02:29.76,0.05,-0.092,-0.988,31452969988.0,-8.537,1.768,-13.171
753,174,2016-01-09 16:02:29.80,0.08,-0.077,-0.992,31470719936.0,-13.78,2.317,-12.134
754,175,2016-01-09 16:02:29.83,0.094,-0.083,-0.981,31508438112.0,-15.427,1.829,-11.159
755,176,2016-01-09 16:02:29.87,0.089,-0.094,-0.991,31521142696.0,-18.11,7.134,-11.829
756,177,2016-01-09 16:02:29.91,0.127,-0.063,-0.994,,,,
757,178,2016-01-09 16:02:29.95,0.12,-0.057,-1.008,31570579832.0,-20.549,8.659,-14.817
758,179,2016-01-09 16:02:29.99,0.046,-0.055,-1.003,31608355924.0,-24.207,5.549,-17.134
759,180,2016-01-09 16:02:30.03,0.098,-0.083,-0.973,31621155508.0,-27.256,1.037,-19.085
760,181,2016-01-09 16:02:30.07,0.119,-0.031,-1.001,31652883893.0,-27.805,-11.646,-18.171
761,182,2016-01-09 16:02:30.11,0.119,0.042,-1.036,31670576341.0,-28.78,-7.988,-15.366
762,183,2016-01-09 16:02:30.15,0.029,0.04,-1.007,31702911550.0,-30.305,1.037,-12.866
763,184,2016-01-09 16:02:30.23,0.114,0.116,-0.995,31721727383.0,-33.963,-2.073,-14.268
764,185,2016-01-09 16:02:30.27,0.056,0.156,-1.015,31759914467.0,-32.988,-18.232,-8.232
765,186,2016-01-09 16:02:30.31,0.042,0.17,-1.015,31859979884.0,-29.146,-13.537,-0.244
766,187,2016-01-09 16:02:30.35,0.019,0.174,-1.004,31877323685.0,-29.146,-11.159,1.524
767,188,2016-01-09 16:02:30.39,-0.0,0.199,-1.02,31904347904.0,-26.707,-12.073,-7.134
768,189,2016-01-09 16:02:30.43,0.039,0.218,-1.039,31928924831.0,-23.537,-9.634,-6.22
769,190,2016-01-09 16:02:30.47,-0.001,0.2,-1.011,31969136862.0,-24.817,-2.622,0.488
770,191,2016-01-09 16:02:30.51,0.009,0.226,-0.989,31983116342.0,-24.268,-2.073,-2.195
771,192,2016-01-09 16:02:30.55,-0.011,0.246,-1.006,32021199363.0,-22.256,-5.976,-3.963
772,193,2016-01-09 16:02:30.59,-0.021,0.26,-1.02,32038963581.0,-22.073,-2.866,-3.598
773,194,2016-01-09 16:02:30.63,-0.002,0.254,-1.007,32058655248.0,-18.841,-3.232,-3.293
774,195,2016-01-09 16:02:30.67,0.02,0.274,-0.986,32061272540.0,-18.232,-3.78,-0.732
775,196,2016-01-09 16:02:30.71,0.015,0.282,-0.994,32102744571.0,-18.78,-1.951,2.134
776,197,2016-01-09 16:02:30.75,-0.02,0.294,-1.01,32105388737.0,-18.232,-2.378,2.622
777,198,2016-01-09 16:02:30.79,0.006,0.302,-0.971,32152633424.0,-17.378,-1.829,3.354
778,199,2016-01-09 16:02:30.83,0.045,0.332,-0.965,32155366913.0,-16.402,-4.085,4.451
779,200,2016-01-09 16:02:30.87,-0.023,0.307,-0.95,32202527590.0,-13.963,-7.805,6.037
780,201,2016-01-09 16:02:30.91,-0.025,0.32,-0.933,32205288944.0,-13.78,-1.159,3.841
781,202,2016-01-09 16:02:30.95,-0.033,0.335,-0.989,32262693216.0,-14.939,-2.683,1.707
782,203,2016-01-09 16:02:30.99,-0.053,0.314,-0.998,32280114518.0,-13.598,-6.524,-0.915
783,204,2016-01-09 16:02:31.03,-0.052,0.352,-0.991,32310262904.0,-13.415,-6.89,-3.293
784,205,2016-01-09 16:02:31.07,-0.063,0.368,-0.972,32318903372.0,-9.634,-17.195,-3.537
785,206,2016-01-09 16:02:31.11,-0.083,0.342,-0.951,32365213112.0,-8.841,-21.89,-2.622
786,207,2016-01-09 16:02:31.15,-0.111,0.352,-0.953,32375855872.0,-7.195,-22.5,-1.951
787,208,2016-01-09 16:02:31.19,-0.113,0.368,-0.959,32414469830.0,-6.524,-20.061,-2.317
788,209,2016-01-09 16:02:31.23,-0.088,0.366,-0.961,32425080924.0,-5.305,-15.366,0.0
789,210,2016-01-09 16:02:31.27,-0.086,0.373,-0.944,32465850038.0,-5.854,-11.829,0.488
790,211,2016-01-09 16:02:31.31,-0.112,0.369,-0.939,32491005507.0,-7.988,-5.61,2.073
791,212,2016-01-09 16:02:31.35,-0.125,0.39,-0.952,32506907851.0,-9.756,0.183,2.256
792,213,2016-01-09 16:02:31.39,-0.114,0.394,-0.954,32509742226.0,-9.573,-0.122,1.098
793,214,2016-01-09 16:02:31.42,-0.109,0.392,-0.951,32552751288.0,-8.72,-3.171,0.183
794,215,2016-01-09 16:02:31.47,-0.106,0.391,-0.963,32555428997.0,-6.707,-3.659,-1.524
795,216,2016-01-09 16:02:31.51,-0.118,0.39,-0.955,32602680457.0,-5.671,-3.11,-1.037
796,217,2016-01-09 16:02:31.55,-0.13,0.398,-0.959,32605327800.0,-5.244,-4.634,0.915
797,218,2016-01-09 16:02:31.58,-0.125,0.39,-0.957,32751736237.0,-5.854,-5.915,0.366
798,219,2016-01-09 16:02:31.62,-0.139,0.407,-0.964,32762200404.0,-4.329,-3.963,-0.183
799,220,2016-01-09 16:02:31.66,-0.147,0.421,-0.977,32804435663.0,-1.402,-1.829,-1.707
800,221,2016-01-09 16:02:31.70,-0.137,0.413,-0.964,32813832330.0,-0.305,-0.061,-1.89
801,222,2016-01-09 16:02:31.74,-0.138,0.405,-0.975,32864625664.0,-0.061,-1.22,0.488
802,223,2016-01-09 16:02:31.78,-0.143,0.403,-0.982,32874689987.0,0.0,-1.951,0.366
803,224,2016-01-09 16:02:31.82,-0.113,0.384,-0.968,32914096861.0,1.037,-1.646,0.793
804,225,2016-01-09 16:02:31.86,-0.145,0.368,-0.994,32925213476.0,4.207,-3.78,6.098
805,226,2016-01-09 16:02:31.90,-0.138,0.43,-1.048,33008012175.0,7.866,0.854,5.183
806,227,2016-01-09 16:02:31.98,-0.101,0.364,-1.03,33024869362.0,13.841,3.049,2.317
807,228,2016-01-09 16:02:32.02,-0.088,0.359,-1.014,33070085455.0,21.402,2.561,-0.366
808,229,2016-01-09 16:02:32.06,-0.095,0.291,-0.995,33119390664.0,29.878,11.707,-3.72
809,230,2016-01-09 16:02:32.10,-0.081,0.302,-1.013,33135257799.0,34.817,18.049,1.28
810,231,2016-01-09 16:02:32.14,-0.007,0.257,-0.978,33170478268.0,41.707,25.854,9.695
811,232,2016-01-09 16:02:32.18,0.068,0.203,-0.982,33185749935.0,45.976,34.878,17.683
812,233,2016-01-09 16:02:32.22,0.041,0.173,-1.033,33207233424.0,43.537,41.341,17.439
813,234,2016-01-09 16:02:32.26,0.066,0.145,-1.025,33209987487.0,43.232,46.524,10.244
814,235,2016-01-09 16:02:32.30,0.127,0.059,-0.971,33252422851.0,49.024,44.817,7.073
815,236,2016-01-09 16:02:32.34,0.131,0.018,-0.977,33255208476.0,51.159,42.378,12.927
816,237,2016-01-09 16:02:32.38,0.096,-0.011,-0.958,33302524623.0,49.634,42.439,12.195
817,238,2016-01-09 16:02:32.42,0.131,-0.063,-0.922,33305214831.0,49.146,35.427,10.976
818,239,2016-01-09 16:02:32.46,0.157,-0.099,-0.915,33352634414.0,49.695,17.561,10.122
819,240,2016-01-09 16:02:32.50,0.145,-0.109,-0.93,33355289726.0,44.207,9.207,11.159
820,241,2016-01-09 16:02:32.54,0.129,-0.141,-0.937,33410135248.0,42.988,3.598,13.11
821,242,2016-01-09 16:02:32.58,0.126,-0.154,-0.918,33418622434.0,41.463,0.305,12.561
822,243,2016-01-09 16:02:32.62,0.09,-0.184,-0.917,33465062173.0,39.024,-1.463,12.744
823,244,2016-01-09 16:02:32.66,0.071,-0.208,-0.913,33477447903.0,34.39,-5.732,11.341
824,245,2016-01-09 16:02:32.70,0.099,-0.215,-0.93,33514420403.0,28.963,-9.634,6.585
825,246,2016-01-09 16:02:32.74,0.097,-0.222,-0.934,33524667956.0,27.439,-18.415,6.341
826,247,2016-01-09 16:02:32.78,0.095,-0.218,-0.915,33564372017.0,22.805,-20.549,7.317
827,248,2016-01-09 16:02:32.82,0.097,-0.213,-0.89,33578707903.0,18.72,-17.195,7.683
828,249,2016-01-09 16:02:32.86,0.098,-0.235,-0.857,33617194414.0,15.061,-15.305,9.146
829,250,2016-01-09 16:02:32.90,0.061,-0.262,-0.898,33716421029.0,7.195,-9.268,9.024
830,251,2016-01-09 16:02:32.94,0.038,-0.268,-0.949,33752380716.0,-3.293,-1.646,10.305
831,252,2016-01-09 16:02:32.98,0.043,-0.258,-0.95,33818874360.0,-9.756,-0.488,12.073
832,253,2016-01-09 16:02:33.02,0.062,-0.208,-0.991,33852681445.0,-15.488,-1.707,13.476
833,254,2016-01-09 16:02:33.06,0.048,-0.202,-1.044,33879494883.0,-21.951,-4.939,12.073
834,255,2016-01-09 16:02:33.10,0.066,-0.197,-1.054,33902591810.0,-28.598,-2.134,10.061
835,256,2016-01-09 16:02:33.14,0.046,-0.18,-1.076,33917114934.0,-30.305,-2.927,12.256
836,257,2016-01-09 16:02:33.18,0.037,-0.195,-1.056,33949345143.0,-28.902,-3.415,14.024
837,258,2016-01-09 16:02:33.21,0.044,-0.203,-1.068,33953593060.0,-24.817,-4.573,14.878
838,259,2016-01-09 16:02:33.26,0.055,-0.162,-1.044,33999418112.0,-16.28,-2.683,13.902
839,260,2016-01-09 16:02:33.29,0.042,-0.152,-1.008,,,,
840,261,2016-01-09 16:02:33.34,0.031,-0.137,-1.013,34049372850.0,-4.207,-9.268,22.256
841,262,2016-01-09 16:02:33.38,0.021,-0.115,-0.991,34053777642.0,-4.268,-2.866,26.402
842,263,2016-01-09 16:02:33.41,0.017,-0.129,-0.962,34099397852.0,-1.951,-2.073,28.354
843,264,2016-01-09 16:02:33.45,0.02,-0.132,-0.999,34103930924.0,-2.622,-2.5,26.707
844,265,2016-01-09 16:02:33.49,0.052,-0.101,-1.014,34154403214.0,-2.683,-5.122,22.073
845,266,2016-01-09 16:02:33.53,0.058,-0.093,-0.979,34164817122.0,1.402,-9.39,19.817
846,267,2016-01-09 16:02:33.57,0.053,-0.118,-0.938,34201835300.0,2.561,-13.659,23.476
847,268,2016-01-09 16:02:33.61,0.027,-0.106,-0.951,34214912278.0,0.427,-8.72,27.5
848,269,2016-01-09 16:02:33.65,-0.013,-0.073,-0.953,34256668058.0,-1.098,1.768,30.122
849,270,2016-01-09 16:02:33.73,0.014,-0.116,-0.932,34271729829.0,-1.524,9.939,35.122
850,271,2016-01-09 16:02:33.77,0.01,-0.127,-0.929,34303003216.0,-7.927,12.317,37.866
851,272,2016-01-09 16:02:33.81,0.084,-0.125,-0.962,34318687539.0,-17.683,31.524,39.146
852,273,2016-01-09 16:02:33.85,0.115,-0.05,-1.01,34352787331.0,-23.78,30.305,38.415
853,274,2016-01-09 16:02:33.89,0.036,0.014,-1.022,34454050142.0,-31.22,48.598,32.378
854,275,2016-01-09 16:02:33.93,-0.056,0.022,-1.048,34479021705.0,-33.476,59.817,29.573
855,276,2016-01-09 16:02:33.97,0.023,0.0,-1.029,34505478215.0,-35.854,40.061,26.28
856,277,2016-01-09 16:02:34.01,0.175,0.046,-1.007,34508557173.0,-31.585,22.805,27.317
857,278,2016-01-09 16:02:34.05,0.189,0.057,-0.963,34549471340.0,-35.488,24.756,26.28
858,279,2016-01-09 16:02:34.09,0.131,0.087,-1.036,34553987226.0,-38.598,37.805,25.976
859,280,2016-01-09 16:02:34.13,0.162,0.115,-1.056,34649912642.0,-32.988,29.939,21.829
860,281,2016-01-09 16:02:34.17,0.23,0.139,-1.056,34654782590.0,-19.451,21.22,17.012
861,282,2016-01-09 16:02:34.21,0.198,0.085,-1.068,34767884205.0,-10.915,17.439,10.854
862,283,2016-01-09 16:02:34.25,0.172,0.07,-1.058,34785558736.0,-7.988,18.78,11.341
863,284,2016-01-09 16:02:34.29,0.189,0.083,-1.034,34807147069.0,-3.049,4.939,10.305
864,285,2016-01-09 16:02:34.33,0.121,0.071,-1.028,34852751132.0,0.0,-9.878,3.537
865,286,2016-01-09 16:02:34.37,0.133,0.06,-0.989,34899396393.0,4.573,-16.89,0.61
866,287,2016-01-09 16:02:34.41,0.154,0.05,-0.981,34903879466.0,11.829,-27.256,0.61
867,288,2016-01-09 16:02:34.45,0.093,0.037,-0.997,35006614726.0,15.244,-31.768,-3.354
868,289,2016-01-09 16:02:34.49,0.109,0.035,-1.001,35017633996.0,20.244,-32.378,-6.768
869,290,2016-01-09 16:02:34.53,0.124,0.03,-0.98,35052795507.0,24.451,-39.695,-3.963
870,291,2016-01-09 16:02:34.57,0.046,-0.016,-0.944,35072389934.0,26.341,-33.232,-5.0
871,292,2016-01-09 16:02:34.61,0.03,-0.059,-0.963,35106702068.0,21.707,-25.305,-3.293
872,293,2016-01-09 16:02:34.65,0.003,-0.048,-1.002,35119678319.0,14.451,-18.049,-3.902
873,294,2016-01-09 16:02:34.69,0.025,-0.097,-1.02,35151790298.0,14.329,-10.732,-7.866
874,295,2016-01-09 16:02:34.73,0.03,-0.121,-1.034,35168246548.0,14.512,-13.293,-7.317
875,296,2016-01-09 16:02:34.77,0.013,-0.126,-0.998,35202878996.0,17.195,-19.634,-2.927
876,297,2016-01-09 16:02:34.81,-0.012,-0.145,-0.984,35218287797.0,20.976,-19.695,0.732
877,298,2016-01-09 16:02:34.85,-0.045,-0.191,-0.952,35256865872.0,17.012,-20.183,1.402
878,299,2016-01-09 16:02:34.89,0.015,-0.183,-0.92,35269590142.0,15.61,-15.183,5.122
879,300,2016-01-09 16:02:34.93,-0.013,-0.216,-0.889,35305103267.0,14.207,-16.646,8.841
880,301,2016-01-09 16:02:34.97,-0.037,-0.248,-0.929,35308077798.0,7.5,-7.439,6.89
881,302,2016-01-09 16:02:35.01,-0.025,-0.245,-0.948,35349395195.0,4.207,2.317,7.073
882,303,2016-01-09 16:02:35.04,-0.024,-0.214,-0.961,35353929882.0,2.622,10.976,10.61
883,304,2016-01-09 16:02:35.09,0.028,-0.22,-0.966,35399362694.0,-3.049,19.39,10.793
884,305,2016-01-09 16:02:35.12,0.043,-0.183,-0.991,,,,
885,306,2016-01-09 16:02:35.17,0.101,-0.154,-0.983,35450040977.0,-18.476,27.988,15.488
886,307,2016-01-09 16:02:35.20,0.073,-0.135,-0.953,35454046497.0,-23.78,30.915,16.524
887,308,2016-01-09 16:02:35.24,0.091,-0.083,-0.972,35504218893.0,-30.183,40.305,16.524
888,309,2016-01-09 16:02:35.28,0.148,-0.039,-0.972,35514783528.0,-32.866,35.915,16.951
889,310,2016-01-09 16:02:35.32,0.215,-0.021,-0.966,35556677903.0,-37.073,33.171,18.72
890,311,2016-01-09 16:02:35.36,0.212,0.034,-0.979,35567669674.0,-42.561,37.988,18.72
891,312,2016-01-09 16:02:35.40,0.188,0.06,-0.999,35602904726.0,-42.927,44.146,13.902
892,313,2016-01-09 16:02:35.48,0.239,0.069,-0.975,35703983632.0,-40.488,48.476,4.207
893,314,2016-01-09 16:02:35.52,0.258,0.103,-0.969,35746909205.0,-38.598,48.049,4.39
894,315,2016-01-09 16:02:35.56,0.322,0.125,-0.947,35759368633.0,-33.293,44.085,2.683
895,316,2016-01-09 16:02:35.60,0.338,0.119,-0.91,35762014831.0,-29.756,35.427,2.744
896,317,2016-01-09 16:02:35.64,0.32,0.158,-0.939,35802460923.0,-27.378,37.378,-0.549
897,318,2016-01-09 16:02:35.68,0.398,0.17,-0.904,35805187590.0,-25.183,37.622,-7.683
898,319,2016-01-09 16:02:35.72,0.406,0.147,-0.896,35852465246.0,-23.354,31.89,-12.988
899,320,2016-01-09 16:02:35.76,0.396,0.185,-0.903,35855183007.0,-22.5,34.268,-16.159
900,321,2016-01-09 16:02:35.80,0.382,0.167,-0.885,35954181392.0,-21.585,30.671,-17.622
901,322,2016-01-09 16:02:35.84,0.449,0.212,-0.902,35972967330.0,-21.829,26.707,-15.0
902,323,2016-01-09 16:02:35.88,0.463,0.244,-0.879,36002142590.0,-21.646,13.476,-13.78
903,324,2016-01-09 16:02:35.92,0.437,0.259,-0.826,36007633892.0,-19.512,13.171,-16.098
904,325,2016-01-09 16:02:35.96,0.458,0.279,-0.801,36049429880.0,-20.061,11.341,-14.756
905,326,2016-01-09 16:02:36.00,0.417,0.298,-0.767,36059909568.0,-22.073,6.768,-15.732
906,327,2016-01-09 16:02:36.04,0.42,0.313,-0.764,36100525456.0,-24.634,8.537,-17.622
907,328,2016-01-09 16:02:36.08,0.424,0.328,-0.762,36104263320.0,-25.61,5.488,-18.232
908,329,2016-01-09 16:02:36.12,0.443,0.385,-0.8,36149322329.0,-24.817,6.22,-15.061
909,330,2016-01-09 16:02:36.16,0.438,0.474,-0.817,36153791652.0,-22.988,5.732,-17.317
910,331,2016-01-09 16:02:36.20,0.45,0.509,-0.845,36204647278.0,-22.256,5.732,-21.585
911,332,2016-01-09 16:02:36.24,0.483,0.451,-0.846,36212328060.0,-24.207,-2.561,-23.11
912,333,2016-01-09 16:02:36.28,0.474,0.438,-0.824,36254574411.0,-24.939,-11.28,-20.244
913,334,2016-01-09 16:02:36.32,0.479,0.436,-0.79,36263976392.0,-22.561,-19.817,-16.098
914,335,2016-01-09 16:02:36.36,0.412,0.434,-0.799,36301794206.0,-10.793,-23.171,-8.476
915,336,2016-01-09 16:02:36.40,0.404,0.462,-0.81,36314931393.0,-2.683,-15.915,0.976
916,337,2016-01-09 16:02:36.44,0.37,0.466,-0.812,36357152484.0,0.671,-1.829,8.963
917,338,2016-01-09 16:02:36.48,0.406,0.427,-0.817,36370262851.0,10.183,6.89,12.012
918,339,2016-01-09 16:02:36.52,0.433,0.435,-0.852,36401881080.0,14.817,5.488,13.537
919,340,2016-01-09 16:02:36.56,0.442,0.405,-0.897,36419050090.0,18.902,1.098,13.963
920,341,2016-01-09 16:02:36.60,0.442,0.374,-0.892,36457023684.0,22.622,-2.134,13.232
921,342,2016-01-09 16:02:36.64,0.422,0.33,-0.91,36470074465.0,28.354,-6.28,13.049
922,343,2016-01-09 16:02:36.68,0.404,0.299,-0.903,36502974672.0,34.024,-10.244,14.024
923,344,2016-01-09 16:02:36.71,0.356,0.247,-0.879,,,,
924,345,2016-01-09 16:02:36.76,0.348,0.243,-0.914,36659144517.0,40.122,-12.805,12.256
925,346,2016-01-09 16:02:36.80,0.333,0.214,-0.943,36676238840.0,39.207,-15.549,8.354
926,347,2016-01-09 16:02:36.83,0.315,0.152,-0.941,36705417486.0,38.78,-23.902,8.598
927,348,2016-01-09 16:02:36.88,0.298,0.13,-0.955,36708583110.0,40.244,-28.537,10.671
928,349,2016-01-09 16:02:36.91,0.278,0.112,-0.954,36752395610.0,42.805,-33.049,11.646
929,350,2016-01-09 16:02:36.95,0.238,0.079,-0.957,36755115298.0,44.634,-32.744,9.085
930,351,2016-01-09 16:02:36.99,0.195,0.039,-0.962,36802464465.0,44.695,-36.037,5.244
931,352,2016-01-09 16:02:37.03,0.163,0.017,-0.988,36805197642.0,46.707,-38.415,1.829
932,353,2016-01-09 16:02:37.07,0.088,-0.012,-0.96,36852756131.0,47.805,-40.549,-2.378
933,354,2016-01-09 16:02:37.11,0.108,-0.054,-0.918,36855679100.0,51.098,-43.537,-6.159
934,355,2016-01-09 16:02:37.15,0.082,-0.099,-0.9,36910742069.0,50.488,-52.683,-4.512
935,356,2016-01-09 16:02:37.23,-0.007,-0.191,-0.914,36920212537.0,46.585,-50.671,-9.451
936,357,2016-01-09 16:02:37.27,-0.052,-0.226,-0.914,36961395714.0,43.354,-47.073,-10.122
937,358,2016-01-09 16:02:37.31,-0.026,-0.261,-0.948,36968962381.0,37.622,-39.695,-12.683
938,359,2016-01-09 16:02:37.35,0.012,-0.274,-0.954,37011089933.0,31.341,-32.256,-14.268
939,360,2016-01-09 16:02:37.39,-0.005,-0.285,-0.945,37019471548.0,23.171,-21.159,-16.707
940,361,2016-01-09 16:02:37.43,-0.002,-0.276,-0.916,37060446548.0,12.195,-7.5,-15.61
941,362,2016-01-09 16:02:37.47,0.004,-0.262,-0.913,37091119256.0,4.939,-3.963,-14.085
942,363,2016-01-09 16:02:37.51,0.005,-0.219,-0.977,37106094152.0,-3.293,2.073,-24.085
943,364,2016-01-09 16:02:37.55,0.045,-0.19,-1.001,37108727172.0,-9.817,12.378,-23.354
944,365,2016-01-09 16:02:37.59,0.087,-0.177,-0.964,37152600298.0,-12.622,14.756,-15.61
945,366,2016-01-09 16:02:37.63,0.095,-0.13,-0.963,37155332641.0,-15.488,17.927,-8.415
946,367,2016-01-09 16:02:37.67,0.071,-0.122,-0.971,37202589255.0,-20.366,25.183,-7.744
947,368,2016-01-09 16:02:37.71,0.071,-0.113,-1.023,37204779464.0,-24.878,26.341,-7.683
948,369,2016-01-09 16:02:37.75,0.105,-0.063,-1.06,37252340715.0,-25.549,26.402,-9.451
949,370,2016-01-09 16:02:37.79,0.159,-0.027,-1.048,37255046861.0,-18.171,25.305,-9.024
950,371,2016-01-09 16:02:37.83,0.16,-0.026,-1.034,37305649100.0,-9.146,15.915,-8.841
951,372,2016-01-09 16:02:37.87,0.133,-0.042,-1.033,37310063424.0,-7.012,8.78,-13.78
952,373,2016-01-09 16:02:37.91,0.124,-0.031,-1.024,37358905246.0,-5.0,3.232,-18.293
953,374,2016-01-09 16:02:37.95,0.139,-0.056,-0.994,37371973371.0,-3.11,0.488,-17.988
954,375,2016-01-09 16:02:37.99,0.094,-0.075,-0.988,37410348267.0,-2.378,-1.89,-16.098
955,376,2016-01-09 16:02:38.03,0.091,-0.083,-0.968,37419174256.0,1.28,-5.915,-19.756
956,377,2016-01-09 16:02:38.07,0.103,-0.063,-0.989,37567977381.0,6.463,-8.232,-21.341
957,378,2016-01-09 16:02:38.11,0.077,-0.073,-1.002,37584436964.0,10.0,-9.39,-24.939
958,379,2016-01-09 16:02:38.15,0.098,-0.086,-1.001,37607122954.0,14.207,-11.098,-29.329
959,380,2016-01-09 16:02:38.19,0.028,-0.105,-1.008,37649288318.0,19.451,-14.146,-32.5
960,381,2016-01-09 16:02:38.23,0.014,-0.122,-0.987,37653806651.0,19.268,-11.341,-38.537
961,382,2016-01-09 16:02:38.27,0.044,-0.124,-0.96,37699340193.0,22.561,-15.244,-41.463
962,383,2016-01-09 16:02:38.31,0.005,-0.174,-0.987,37703903005.0,26.341,-19.024,-44.573
963,384,2016-01-09 16:02:38.35,-0.009,-0.209,-1.021,37749254621.0,26.341,-17.439,-48.537
964,385,2016-01-09 16:02:38.39,0.005,-0.216,-1.032,37753863006.0,30.488,-18.78,-49.268
965,386,2016-01-09 16:02:38.43,0.055,-0.233,-1.032,37799284516.0,30.244,-18.049,-46.951
966,387,2016-01-09 16:02:38.47,0.083,-0.258,-1.015,37813386860.0,23.78,-15.427,-50.732
967,388,2016-01-09 16:02:38.51,0.114,-0.237,-1.031,37856673371.0,19.878,-5.915,-55.793
968,389,2016-01-09 16:02:38.54,0.153,-0.225,-1.054,,,,
969,390,2016-01-09 16:02:38.58,0.2,-0.238,-0.958,37901809100.0,15.488,8.11,-64.146
970,391,2016-01-09 16:02:38.62,0.187,-0.205,-0.965,37918812120.0,14.329,10.488,-63.11
971,392,2016-01-09 16:02:38.67,0.245,-0.182,-0.968,37955625036.0,16.463,12.317,-57.5
972,393,2016-01-09 16:02:38.70,0.263,-0.225,-0.928,37987119828.0,24.207,11.524,-52.195
973,394,2016-01-09 16:02:38.74,0.226,-0.204,-0.964,38006717328.0,31.037,20.915,-47.256
974,395,2016-01-09 16:02:38.78,0.236,-0.218,-0.932,,,,
975,396,2016-01-09 16:02:38.82,0.228,-0.267,-0.933,38049332171.0,44.939,14.451,-35.854
976,397,2016-01-09 16:02:38.86,0.312,-0.271,-0.897,38054080921.0,50.488,13.72,-24.756
977,398,2016-01-09 16:02:38.90,0.335,-0.299,-0.836,38099388839.0,60.488,0.305,-15.488
978,399,2016-01-09 16:02:38.98,0.366,-0.352,-0.8,38152369099.0,60.244,6.098,-3.232
979,400,2016-01-09 16:02:39.02,0.321,-0.412,-0.774,38155097432.0,61.707,4.085,6.22
980,401,2016-01-09 16:02:39.06,0.268,-0.46,-0.769,38209033839.0,66.524,16.402,15.0
981,402,2016-01-09 16:02:39.10,0.294,-0.558,-0.739,38216544308.0,66.22,14.634,18.476
982,403,2016-01-09 16:02:39.14,0.292,-0.642,-0.696,38263890140.0,65.0,13.537,20.0
983,404,2016-01-09 16:02:39.18,0.216,-0.675,-0.666,38275641703.0,66.463,14.146,23.354
984,405,2016-01-09 16:02:39.22,0.245,-0.702,-0.601,38315122172.0,65.427,11.22,26.89
985,406,2016-01-09 16:02:39.26,0.303,-0.75,-0.515,38342135401.0,66.28,1.707,24.817
986,407,2016-01-09 16:02:39.30,0.272,-0.772,-0.485,38358340296.0,65.671,2.5,26.037
987,408,2016-01-09 16:02:39.34,0.276,-0.743,-0.462,38361107849.0,62.134,7.683,29.268
988,409,2016-01-09 16:02:39.38,0.258,-0.773,-0.416,38502697434.0,57.256,7.988,27.256
989,410,2016-01-09 16:02:39.42,0.205,-0.814,-0.392,38505450247.0,56.707,12.805,25.61
990,411,2016-01-09 16:02:39.46,0.223,-0.855,-0.367,38561949151.0,58.232,11.098,24.146
991,412,2016-01-09 16:02:39.50,0.231,-0.897,-0.339,38608127693.0,63.232,7.073,24.085
992,413,2016-01-09 16:02:39.54,0.186,-0.93,-0.271,38619834412.0,63.171,10.488,27.622
993,414,2016-01-09 16:02:39.58,0.131,-0.936,-0.248,38652610453.0,63.232,15.854,32.134
994,415,2016-01-09 16:02:39.62,0.113,-0.94,-0.202,38670452953.0,61.524,13.171,33.11
995,416,2016-01-09 16:02:39.66,0.094,-0.945,-0.124,38702799099.0,61.524,12.805,33.902
996,417,2016-01-09 16:02:39.70,0.053,-0.95,-0.084,38720695922.0,60.549,10.549,37.866
997,418,2016-01-09 16:02:39.74,0.022,-0.95,-0.076,38756850922.0,60.183,6.829,39.146
998,419,2016-01-09 16:02:39.78,-0.046,-0.909,-0.054,38770536964.0,61.524,7.988,37.378
999,420,2016-01-09 16:02:39.82,0.001,-0.898,0.007,38802631078.0,64.756,11.951,33.659
1000,421,2016-01-09 16:02:39.86,-0.014,-0.882,0.031,38852662693.0,61.951,8.841,27.805
1001,422,2016-01-09 16:02:39.90,-0.111,-0.878,0.056,38875525453.0,54.695,15.061,22.988
1002,423,2016-01-09 16:02:39.94,-0.091,-0.892,0.128,38904026860.0,43.659,19.329,17.073
1003,424,2016-01-09 16:02:39.98,-0.094,-0.907,0.136,38929542641.0,28.902,14.085,12.744
1004,425,2016-01-09 16:02:40.02,-0.117,-0.917,0.124,38953828943.0,15.183,8.537,10.549
1005,426,2016-01-09 16:02:40.06,-0.073,-0.942,0.136,38964785714.0,9.878,4.878,6.22
1006,427,2016-01-09 16:02:40.10,-0.07,-0.969,0.124,39000403265.0,-0.854,2.317,1.22
1007,428,2016-01-09 16:02:40.14,-0.09,-0.974,0.123,39004078212.0,-11.524,0.366,-1.22
1008,429,2016-01-09 16:02:40.18,-0.106,-0.983,0.1,39049256808.0,-17.073,-2.317,-2.134
1009,430,2016-01-09 16:02:40.22,-0.119,-0.968,0.063,39054002277.0,-23.902,-4.817,-2.561
1010,431,2016-01-09 16:02:40.26,-0.107,-0.94,0.046,39099350923.0,-28.659,-4.878,-2.317
1011,432,2016-01-09 16:02:40.29,-0.103,-0.949,0.011,39104386703.0,-32.927,-3.537,-2.439
1012,433,2016-01-09 16:02:40.34,-0.088,-0.931,-0.037,39149262797.0,-41.524,-5.183,-3.354
1013,434,2016-01-09 16:02:40.37,-0.077,-0.89,-0.08,,,,
1014,435,2016-01-09 16:02:40.41,-0.056,-0.896,-0.125,39201522745.0,-53.293,-6.159,-5.305
1015,436,2016-01-09 16:02:40.46,-0.052,-0.914,-0.108,39212479152.0,-62.805,-3.72,-5.549
1016,437,2016-01-09 16:02:40.49,-0.064,-0.913,-0.158,39250483839.0,-71.829,-1.646,-4.939
1017,438,2016-01-09 16:02:40.53,-0.064,-0.868,-0.28,39254238943.0,-79.39,-1.646,-5.305
1018,439,2016-01-09 16:02:40.57,-0.041,-0.908,-0.361,39299249671.0,-84.512,0.61,-6.829
1019,440,2016-01-09 16:02:40.61,-0.021,-0.925,-0.436,39399299880.0,-88.78,0.793,-6.768
1020,441,2016-01-09 16:02:40.65,-0.031,-0.857,-0.562,39403816703.0,-93.11,2.317,-6.524
1021,442,2016-01-09 16:02:40.73,0.011,-0.744,-0.685,39449304777.0,-94.939,3.415,-7.622
1022,443,2016-01-09 16:02:40.77,-0.039,-0.664,-0.736,39466237224.0,-96.22,5.915,-10.671
1023,444,2016-01-09 16:02:40.81,-0.037,-0.594,-0.781,39516450712.0,-95.671,12.195,-8.902
1024,445,2016-01-09 16:02:40.85,-0.015,-0.521,-0.797,39527056494.0,-91.037,6.646,-8.476
1025,446,2016-01-09 16:02:40.89,0.009,-0.453,-0.803,39563926860.0,-92.622,6.585,-8.72
1026,447,2016-01-09 16:02:40.93,0.06,-0.399,-0.828,39575707901.0,-92.256,5.183,-8.171
1027,448,2016-01-09 16:02:40.97,0.04,-0.353,-0.839,39615521808.0,-89.329,2.927,-9.268
1028,449,2016-01-09 16:02:41.01,-0.016,-0.326,-0.878,39626463318.0,-85.305,10.732,-10.305
1029,450,2016-01-09 16:02:41.05,-0.023,-0.324,-0.913,39664341338.0,-86.037,12.805,-10.183
1030,451,2016-01-09 16:02:41.13,0.03,-0.266,-1.011,39675029567.0,-87.805,8.841,-12.439
1031,452,2016-01-09 16:02:41.17,0.08,-0.235,-1.056,39715609254.0,-86.524,2.012,-14.085
1032,453,2016-01-09 16:02:41.21,0.057,-0.204,-1.046,39726123473.0,-87.012,-0.122,-15.122
1033,454,2016-01-09 16:02:41.25,0.016,-0.142,-1.015,39764127640.0,-85.183,1.585,-15.732
1034,455,2016-01-09 16:02:41.29,-0.006,-0.118,-0.979,39776551494.0,-85.244,-2.195,-15.854
1035,456,2016-01-09 16:02:41.33,0.054,0.003,-1.184,39815568526.0,-90.244,-4.817,-17.378
1036,457,2016-01-09 16:02:41.37,0.077,0.325,-1.314,39826368266.0,-94.573,-3.902,-8.841
1037,458,2016-01-09 16:02:41.41,-0.004,0.226,-1.156,39864313838.0,-84.756,-2.012,12.195
1038,459,2016-01-09 16:02:41.45,0.013,0.198,-1.064,39874713682.0,-62.805,5.183,-4.634
1039,460,2016-01-09 16:02:41.49,0.012,0.342,-1.031,39915219150.0,-21.524,-33.415,-0.793
1040,461,2016-01-09 16:02:41.53,-0.045,0.307,-0.998,39927395921.0,-32.012,-9.207,-1.402
1041,462,2016-01-09 16:02:41.57,-0.052,0.308,-0.965,39964527744.0,-16.159,-4.695,-4.329
1042,463,2016-01-09 16:02:41.61,-0.07,0.281,-0.971,39976121234.0,0.732,-9.756,-0.976
1043,464,2016-01-09 16:02:41.65,-0.046,0.276,-0.934,40016083057.0,2.378,-0.976,-3.78
1044,465,2016-01-09 16:02:41.69,-0.042,0.282,-0.936,40026658890.0,4.024,1.28,-7.195
1045,466,2016-01-09 16:02:41.73,-0.059,0.279,-0.969,40064399776.0,5.976,1.524,-8.232
1046,467,2016-01-09 16:02:41.77,-0.059,0.26,-1.017,40106293942.0,10.244,1.341,-9.695
1047,468,2016-01-09 16:02:41.81,-0.043,0.233,-1.077,40109063317.0,10.61,5.244,-10.915
1048,469,2016-01-09 16:02:41.85,-0.022,0.182,-1.123,40112259724.0,12.622,8.171,-12.317
1049,470,2016-01-09 16:02:41.89,0.038,0.137,-1.145,40152509724.0,15.976,10.671,-15.976
1050,471,2016-01-09 16:02:41.93,0.03,0.04,-1.06,40155216651.0,21.159,19.024,-23.476
1051,472,2016-01-09 16:02:41.97,0.061,-0.039,-0.995,40299209620.0,28.11,32.5,-27.805
1052,473,2016-01-09 16:02:42.01,0.081,-0.146,-1.036,40315553839.0,39.573,33.11,-32.805
1053,474,2016-01-09 16:02:42.04,0.046,-0.161,-1.004,40356176859.0,51.463,40.976,-29.512
1054,475,2016-01-09 16:02:42.09,0.082,-0.139,-0.977,40367082275.0,58.232,43.293,-24.695
1055,476,2016-01-09 16:02:42.12,0.132,-0.166,-0.929,40421262327.0,52.927,34.512,-25.427
1056,477,2016-01-09 16:02:42.16,0.112,-0.157,-0.883,40437419410.0,49.207,26.159,-34.146
1057,478,2016-01-09 16:02:42.20,0.16,-0.125,-0.889,40461503317.0,44.512,13.293,-41.646
1058,479,2016-01-09 16:02:42.24,0.214,-0.175,-0.84,40463248056.0,38.902,-7.622,-47.134
1059,480,2016-01-09 16:02:42.28,0.105,-0.217,-0.865,40502467222.0,32.866,-13.293,-50.671
1060,481,2016-01-09 16:02:42.32,0.059,-0.167,-0.9,40505136128.0,27.195,-12.561,-50.793
1061,482,2016-01-09 16:02:42.36,0.125,-0.136,-0.902,40552352433.0,25.793,-24.695,-56.28
1062,483,2016-01-09 16:02:42.40,0.201,-0.145,-0.892,40555124880.0,18.537,-38.598,-61.707
1063,484,2016-01-09 16:02:42.48,0.153,-0.171,-0.894,40602340088.0,3.841,-35.488,-47.256
1064,485,2016-01-09 16:02:42.52,0.038,-0.161,-1.059,40605083890.0,-4.573,-23.171,-38.476
1065,486,2016-01-09 16:02:42.56,0.156,-0.084,-1.091,40652605713.0,-22.439,3.293,-32.988
1066,487,2016-01-09 16:02:42.60,0.139,0.044,-0.998,40655278682.0,-20.366,-12.866,-39.451
1067,488,2016-01-09 16:02:42.64,0.114,0.057,-0.999,40709971495.0,-19.207,-23.171,-45.671
1068,489,2016-01-09 16:02:42.68,0.159,0.028,-1.004,40720033006.0,-28.293,-34.329,-30.976
1069,490,2016-01-09 16:02:42.72,0.086,0.059,-1.005,40760240870.0,-27.5,-38.659,-24.573
1070,491,2016-01-09 16:02:42.76,0.083,0.074,-1.055,40767679359.0,-20.122,-35.366,-18.476
1071,492,2016-01-09 16:02:42.80,0.094,0.038,-1.099,40813689931.0,-25.427,-37.256,-9.756
1072,493,2016-01-09 16:02:42.88,0.057,0.078,-1.078,40825197431.0,-24.39,-28.902,16.707
1073,494,2016-01-09 16:02:42.92,0.066,0.047,-1.033,40864512171.0,-13.476,-16.22,26.707
1074,495,2016-01-09 16:02:42.96,0.104,0.05,-1.032,40876795505.0,4.939,15.915,37.561
1075,496,2016-01-09 16:02:43.00,0.109,0.024,-1.031,40914333889.0,15.671,15.122,41.89
1076,497,2016-01-09 16:02:43.04,0.134,-0.0,-0.99,40926287691.0,20.366,22.256,42.622
1077,498,2016-01-09 16:02:43.08,0.147,-0.009,-0.98,40964362328.0,18.78,34.085,46.89
1078,499,2016-01-09 16:02:43.12,0.172,-0.054,-0.978,40976467327.0,16.098,40.793,51.768
1079,500,2016-01-09 16:02:43.16,0.176,-0.092,-0.936,41014201129.0,18.293,39.268,54.695
1080,501,2016-01-09 16:02:43.20,0.195,-0.107,-0.937,41026343212.0,17.134,40.976,59.085
1081,502,2016-01-09 16:02:43.24,0.202,-0.128,-0.927,41067229046.0,10.915,39.39,63.171
1082,503,2016-01-09 16:02:43.28,0.197,-0.143,-0.918,41107288682.0,7.5,33.902,67.317
1083,504,2016-01-09 16:02:43.32,0.187,-0.142,-0.916,41252604880.0,1.829,32.439,68.354
1084,505,2016-01-09 16:02:43.36,0.208,-0.144,-0.93,41255325505.0,-1.22,25.122,65.061
1085,506,2016-01-09 16:02:43.40,0.189,-0.199,-0.921,41307470140.0,-4.146,15.183,63.293
1086,507,2016-01-09 16:02:43.44,0.185,-0.17,-0.936,41374769619.0,-9.939,13.232,62.317
1087,508,2016-01-09 16:02:43.48,0.152,-0.141,-0.962,41416033316.0,-12.5,5.793,57.561
1088,509,2016-01-09 16:02:43.52,0.145,-0.16,-0.981,41422593889.0,-18.963,1.707,49.817
1089,510,2016-01-09 16:02:43.56,0.136,-0.159,-0.96,41449263212.0,-24.756,-1.037,46.768
1090,511,2016-01-09 16:02:43.60,0.119,-0.109,-0.988,41453843941.0,-26.159,-5.915,49.024
1091,512,2016-01-09 16:02:43.64,0.081,-0.077,-0.971,41499167431.0,-28.537,-8.11,46.037
1092,513,2016-01-09 16:02:43.68,0.07,-0.103,-0.897,41503861806.0,-30.793,-15.732,38.171
1093,514,2016-01-09 16:02:43.71,0.123,-0.069,-1.054,41549315922.0,-29.573,-27.134,47.5
1094,515,2016-01-09 16:02:43.76,0.26,0.02,-1.146,41554016703.0,-31.951,-28.841,65.549
1095,516,2016-01-09 16:02:43.80,0.073,0.051,-1.081,41599172378.0,-30.427,-9.024,62.866
1096,517,2016-01-09 16:02:43.83,-0.129,0.071,-1.075,41603346389.0,-25.305,29.085,50.305
1097,518,2016-01-09 16:02:43.88,-0.255,0.014,-1.1,41651110036.0,-16.159,16.037,40.122
1098,519,2016-01-09 16:02:43.92,-0.171,0.021,-1.095,41662364255.0,-11.037,-3.963,42.073
1099,520,2016-01-09 16:02:43.95,-0.018,0.035,-1.045,41756041911.0,-0.915,-28.415,42.561
1100,521,2016-01-09 16:02:43.99,0.011,0.006,-1.057,41773053317.0,4.878,-33.293,39.207
1101,522,2016-01-09 16:02:44.03,-0.087,-0.039,-1.071,,,,
1102,523,2016-01-09 16:02:44.07,-0.1,-0.098,-1.028,41829460088.0,24.207,-44.268,30.122
1103,524,2016-01-09 16:02:44.11,-0.02,-0.11,-1.003,41854528317.0,33.293,-38.902,29.146
1104,525,2016-01-09 16:02:44.15,-0.057,-0.138,-0.982,41862190921.0,38.476,-36.037,25.427
1105,526,2016-01-09 16:02:44.23,-0.081,-0.21,-0.963,41899175243.0,40.0,-25.854,22.317
1106,527,2016-01-09 16:02:44.27,-0.163,-0.221,-0.996,41903770138.0,40.0,-24.085,20.854
1107,528,2016-01-09 16:02:44.31,-0.271,-0.246,-0.993,41949176702.0,39.817,-16.037,21.037
1108,529,2016-01-09 16:02:44.35,-0.346,-0.246,-1.006,41953821182.0,40.915,-14.146,22.744
1109,530,2016-01-09 16:02:44.39,-0.395,-0.305,-0.954,41999180606.0,43.049,-16.89,19.939
1110,531,2016-01-09 16:02:44.43,-0.336,-0.335,-0.928,42003751961.0,42.561,-20.061,15.61
1111,532,2016-01-09 16:02:44.47,-0.33,-0.36,-0.923,42049181130.0,44.695,-22.317,8.354
1112,533,2016-01-09 16:02:44.51,-0.354,-0.464,-0.884,42053782796.0,48.659,-15.427,-0.061
1113,534,2016-01-09 16:02:44.55,-0.319,-0.571,-0.834,42099176232.0,54.573,-18.049,-2.866
1114,535,2016-01-09 16:02:44.63,-0.363,-0.572,-0.851,42118682951.0,58.11,-19.939,-14.878
1115,536,2016-01-09 16:02:44.67,-0.338,-0.576,-0.791,42218087795.0,60.549,-12.622,-23.78
1116,537,2016-01-09 16:02:44.71,-0.324,-0.59,-0.735,42236160139.0,69.451,-10.305,-29.573
1117,538,2016-01-09 16:02:44.75,-0.285,-0.625,-0.664,42271708629.0,66.89,-12.195,-33.598
1118,539,2016-01-09 16:02:44.79,-0.28,-0.629,-0.648,42299319463.0,68.171,-15.0,-37.378
1119,540,2016-01-09 16:02:44.83,-0.264,-0.654,-0.61,42304061130.0,70.854,-14.756,-43.902
1120,541,2016-01-09 16:02:44.87,-0.261,-0.716,-0.558,42349186962.0,73.232,-14.024,-46.22
1121,542,2016-01-09 16:02:44.91,-0.297,-0.78,-0.482,42353868265.0,68.232,-13.171,-47.988
1122,543,2016-01-09 16:02:44.95,-0.279,-0.806,-0.444,42399176650.0,65.366,-10.061,-52.561
1123,544,2016-01-09 16:02:44.99,-0.239,-0.801,-0.371,42403730244.0,66.829,-10.61,-59.512
1124,545,2016-01-09 16:02:45.03,-0.185,-0.777,-0.323,42449180296.0,60.915,-12.073,-64.39
1125,546,2016-01-09 16:02:45.07,-0.135,-0.812,-0.275,42453872224.0,47.927,-15.061,-69.573
1126,547,2016-01-09 16:02:45.11,-0.007,-0.882,-0.229,42499171337.0,39.329,-20.305,-71.524
1127,548,2016-01-09 16:02:45.15,0.083,-0.895,-0.245,42511167692.0,30.244,-22.439,-69.939
1128,549,2016-01-09 16:02:45.19,0.144,-0.893,-0.249,42551243942.0,26.463,-24.695,-66.037
1129,550,2016-01-09 16:02:45.23,0.181,-0.895,-0.271,42564468942.0,20.854,-22.256,-57.988
1130,551,2016-01-09 16:02:45.27,0.237,-0.882,-0.304,42606453108.0,7.622,-19.634,-47.927
1131,552,2016-01-09 16:02:45.31,0.287,-0.886,-0.35,42617355191.0,-2.866,-14.329,-35.671
1132,553,2016-01-09 16:02:45.35,0.288,-0.867,-0.372,42656512223.0,-12.378,-10.427,-23.354
1133,554,2016-01-09 16:02:45.39,0.306,-0.847,-0.393,42669863890.0,-17.195,-5.122,-13.171
1134,555,2016-01-09 16:02:45.43,0.334,-0.823,-0.445,42702664984.0,-17.744,-2.927,-4.39
1135,556,2016-01-09 16:02:45.47,0.262,-0.792,-0.484,42718168265.0,-17.256,1.037,3.476
1136,557,2016-01-09 16:02:45.51,0.243,-0.781,-0.494,42756826598.0,-16.585,8.476,8.963
1137,558,2016-01-09 16:02:45.55,0.228,-0.769,-0.502,42770211599.0,-16.098,5.122,14.207
1138,559,2016-01-09 16:02:45.58,0.194,-0.754,-0.51,,,,
1139,560,2016-01-09 16:02:45.63,0.179,-0.786,-0.481,42818180764.0,-17.683,1.159,26.585
1140,561,2016-01-09 16:02:45.67,0.159,-0.784,-0.472,42852695296.0,-20.366,1.646,31.89
1141,562,2016-01-09 16:02:45.70,0.112,-0.767,-0.466,42868311337.0,-21.402,4.451,35.549
1142,563,2016-01-09 16:02:45.74,0.076,-0.787,-0.465,42902673940.0,-21.341,10.183,38.293
1143,564,2016-01-09 16:02:45.78,0.029,-0.815,-0.484,42918134982.0,-28.902,14.39,37.073
1144,565,2016-01-09 16:02:45.82,-0.026,-0.798,-0.542,43009186441.0,-34.146,20.854,31.524
1145,566,2016-01-09 16:02:45.86,-0.019,-0.798,-0.565,43026627431.0,-35.305,22.073,27.439
1146,567,2016-01-09 16:02:45.90,-0.016,-0.824,-0.547,43149087275.0,-37.805,14.817,26.585
1147,568,2016-01-09 16:02:45.94,-0.082,-0.774,-0.589,43153840817.0,-44.634,13.049,23.232
1148,569,2016-01-09 16:02:45.98,-0.097,-0.714,-0.618,43199142586.0,-50.0,13.293,18.841
1149,570,2016-01-09 16:02:46.02,-0.056,-0.717,-0.612,43203597742.0,-49.939,10.61,15.427
1150,571,2016-01-09 16:02:46.06,-0.066,-0.664,-0.677,43263353473.0,-55.122,5.549,11.89
1151,572,2016-01-09 16:02:46.10,-0.078,-0.635,-0.741,43273352484.0,-57.805,4.695,5.244
1152,573,2016-01-09 16:02:46.14,-0.047,-0.611,-0.795,43313521181.0,-59.146,4.695,3.232
1153,574,2016-01-09 16:02:46.18,-0.073,-0.577,-0.865,43326328004.0,-62.378,3.476,2.927
1154,575,2016-01-09 16:02:46.22,-0.072,-0.584,-0.943,43364001805.0,-64.451,3.78,1.28
1155,576,2016-01-09 16:02:46.26,0.02,-0.562,-0.929,43375946909.0,-66.524,-1.585,6.646
1156,577,2016-01-09 16:02:46.30,0.077,-0.487,-0.967,43414016754.0,-61.22,-2.073,17.927
1157,578,2016-01-09 16:02:46.38,0.055,-0.392,-0.967,43424396025.0,-58.78,1.463,31.829
1158,579,2016-01-09 16:02:46.42,0.057,-0.349,-0.969,43464168524.0,-55.122,4.451,32.683
1159,580,2016-01-09 16:02:46.46,0.077,-0.315,-0.946,43474705399.0,-28.232,4.268,34.268
1160,581,2016-01-09 16:02:46.50,0.041,-0.306,-0.943,43513701910.0,-19.939,2.317,38.11
1161,582,2016-01-09 16:02:46.54,0.032,-0.31,-0.963,43525786441.0,-14.024,7.256,43.841
1162,583,2016-01-09 16:02:46.58,0.018,-0.331,-0.959,43564117066.0,-5.854,8.963,50.183
1163,584,2016-01-09 16:02:46.62,-0.054,-0.348,-0.967,43574242639.0,0.244,12.988,51.037
1164,585,2016-01-09 16:02:46.66,-0.075,-0.382,-0.956,43613453941.0,6.28,14.329,49.268
1165,586,2016-01-09 16:02:46.70,-0.097,-0.414,-0.946,43625478004.0,13.902,10.976,49.634
1166,587,2016-01-09 16:02:46.74,-0.139,-0.445,-0.93,43664174774.0,16.524,12.073,51.89
1167,588,2016-01-09 16:02:46.78,-0.169,-0.475,-0.898,43674558940.0,18.293,9.634,55.122
1168,589,2016-01-09 16:02:46.82,-0.211,-0.494,-0.887,43714089722.0,20.915,4.573,55.671
1169,590,2016-01-09 16:02:46.86,-0.243,-0.499,-0.893,43724296909.0,22.073,0.122,54.756
1170,591,2016-01-09 16:02:46.90,-0.273,-0.49,-0.869,43764288472.0,25.427,-6.707,52.317
1171,592,2016-01-09 16:02:46.94,-0.305,-0.493,-0.82,43774648056.0,25.671,-10.061,48.293
1172,593,2016-01-09 16:02:46.98,-0.317,-0.512,-0.783,43814034097.0,24.39,-17.317,45.122
1173,594,2016-01-09 16:02:47.02,-0.34,-0.505,-0.768,43824129930.0,21.037,-22.073,42.378
1174,595,2016-01-09 16:02:47.06,-0.359,-0.496,-0.786,43864123837.0,20.732,-22.988,40.244
1175,596,2016-01-09 16:02:47.10,-0.388,-0.485,-0.788,43874641024.0,20.732,-21.098,38.476
1176,597,2016-01-09 16:02:47.14,-0.421,-0.492,-0.774,43914072013.0,20.0,-18.78,34.207
1177,598,2016-01-09 16:02:47.17,-0.429,-0.502,-0.781,,,,
1178,599,2016-01-09 16:02:47.22,-0.438,-0.515,-0.754,44052342015.0,13.659,-19.573,26.098
1179,600,2016-01-09 16:02:47.26,-0.461,-0.524,-0.744,44073691910.0,11.829,-17.622,20.915
1180,601,2016-01-09 16:02:47.29,-0.474,-0.52,-0.739,44102483002.0,9.512,-17.439,17.5
1181,602,2016-01-09 16:02:47.34,-0.483,-0.514,-0.728,44125578680.0,11.098,-17.866,11.951
1182,603,2016-01-09 16:02:47.38,-0.521,-0.554,-0.715,44167705399.0,13.415,-15.366,6.707
1183,604,2016-01-09 16:02:47.41,-0.529,-0.56,-0.718,,,,
1184,605,2016-01-09 16:02:47.46,-0.54,-0.562,-0.706,44217851128.0,19.573,-17.439,2.195
1185,606,2016-01-09 16:02:47.49,-0.547,-0.565,-0.679,44231776285.0,21.28,-15.61,-0.366
1186,607,2016-01-09 16:02:47.53,-0.541,-0.559,-0.664,44267432951.0,19.024,-12.256,-0.61
1187,608,2016-01-09 16:02:47.57,-0.54,-0.569,-0.66,44283571910.0,15.122,-10.122,1.463
1188,609,2016-01-09 16:02:47.61,-0.537,-0.57,-0.652,44317526128.0,12.744,-8.78,2.256
1189,610,2016-01-09 16:02:47.65,-0.524,-0.571,-0.643,44333787639.0,11.159,-6.707,1.951
1190,611,2016-01-09 16:02:47.69,-0.519,-0.569,-0.64,44352333889.0,9.024,-6.28,2.073
1191,612,2016-01-09 16:02:47.73,-0.524,-0.582,-0.65,44354614514.0,7.622,-6.159,1.707
1192,613,2016-01-09 16:02:47.77,-0.519,-0.587,-0.651,44402376024.0,5.976,-4.39,1.707
1193,614,2016-01-09 16:02:47.81,-0.52,-0.582,-0.652,44405034618.0,4.207,-2.988,0.976
1194,615,2016-01-09 16:02:47.85,-0.527,-0.587,-0.635,44452569305.0,2.439,-0.671,0.061
1195,616,2016-01-09 16:02:47.89,-0.553,-0.602,-0.643,44455352430.0,0.305,0.488,-0.122
1196,617,2016-01-09 16:02:47.93,-0.539,-0.6,-0.654,44502269150.0,-1.768,1.524,1.28
1197,618,2016-01-09 16:02:47.97,-0.528,-0.589,-0.65,44505049670.0,0.183,-0.976,-0.488
1198,619,2016-01-09 16:02:48.01,-0.532,-0.589,-0.646,44559872690.0,1.768,0.488,-1.28
1199,620,2016-01-09 16:02:48.05,-0.541,-0.591,-0.644,44567360346.0,-0.366,-2.012,-0.427
1200,621,2016-01-09 16:02:48.09,-0.539,-0.584,-0.652,44613540921.0,-1.22,-3.11,-0.122
1201,622,2016-01-09 16:02:48.13,-0.541,-0.582,-0.648,44623560504.0,-1.098,-1.707,-1.159
1202,623,2016-01-09 16:02:48.17,-0.547,-0.587,-0.646,44664302066.0,-0.671,0.488,-2.073
1203,624,2016-01-09 16:02:48.21,-0.541,-0.585,-0.649,44674559462.0,-1.341,0.549,-1.89
1204,625,2016-01-09 16:02:48.25,-0.543,-0.585,-0.658,44714008680.0,-2.134,-0.244,-2.439
1205,626,2016-01-09 16:02:48.29,-0.542,-0.588,-0.656,44725866128.0,-2.256,1.098,-2.5
1206,627,2016-01-09 16:02:48.33,-0.539,-0.588,-0.656,44764643315.0,-2.378,0.488,-2.683
1207,628,2016-01-09 16:02:48.37,-0.55,-0.581,-0.658,44775557221.0,-2.683,0.976,-2.988
1208,629,2016-01-09 16:02:48.41,-0.554,-0.583,-0.66,44811664878.0,-2.195,0.915,-2.561
1209,630,2016-01-09 16:02:48.45,-0.53,-0.587,-0.661,44812925972.0,-2.134,-0.61,-2.317
1210,631,2016-01-09 16:02:48.49,-0.533,-0.592,-0.663,44952317689.0,-2.744,-3.171,-2.988
1211,632,2016-01-09 16:02:48.53,-0.54,-0.589,-0.649,44955081596.0,-2.378,-3.78,-2.927
1212,633,2016-01-09 16:02:48.57,-0.528,-0.593,-0.655,45002468684.0,-1.829,-2.256,-3.598
1213,634,2016-01-09 16:02:24.43,,,,27402604468.0,-25.732,-8.78,-61.28
1214,635,2016-01-09 16:02:24.67,,,,27551503583.0,-46.341,-11.159,-63.293
1215,636,2016-01-09 16:02:26.26,,,,28703736239.0,-26.89,7.866,54.573
1216,637,2016-01-09 16:02:28.09,,,,30199813583.0,24.939,-0.488,-21.098
1217,638,2016-01-09 16:02:29.92,,,,31552898373.0,-21.037,6.89,-12.439
1218,639,2016-01-09 16:02:33.30,,,,34003862852.0,-7.927,-6.037,16.829
1219,640,2016-01-09 16:02:35.13,,,,35403865090.0,-12.195,20.976,11.89
1220,641,2016-01-09 16:02:36.72,,,,36518646547.0,37.561,-12.317,14.39
1221,642,2016-01-09 16:02:38.55,,,,37867660662.0,18.476,-0.671,-60.854
1222,643,2016-01-09 16:02:38.79,,,,38009746026.0,39.085,14.268,-41.098
1223,644,2016-01-09 16:02:40.38,,,,39153857484.0,-48.171,-6.829,-4.39
1224,645,2016-01-09 16:02:44.04,,,,41803958369.0,8.963,-36.098,36.402
1225,646,2016-01-09 16:02:45.59,,,,42802690504.0,-17.256,4.024,20.915
1226,647,2016-01-09 16:02:47.18,,,,43924222013.0,16.341,-18.354,31.585
1227,648,2016-01-09 16:02:47.42,,,,44181599723.0,15.305,-14.573,4.817
1228,0,2016-01-09 16:04:24.55,0.308,-0.41,-0.807,,,,
1229,1,2016-01-09 16:04:24.59,0.331,-0.422,-0.81,26599692855.0,4.268,7.073,2.378
1230,2,2016-01-09 16:04:24.63,0.363,-0.427,-0.823,26616100250.0,3.171,5.427,5.793
1231,3,2016-01-09 16:04:24.67,0.355,-0.445,-0.844,26649089886.0,3.963,7.195,7.317
1232,4,2016-01-09 16:04:24.71,0.306,-0.433,-0.832,26699050980.0,5.244,10.427,0.427
1233,5,2016-01-09 16:04:24.75,0.263,-0.447,-0.84,26704576865.0,6.28,16.037,-12.805
1234,6,2016-01-09 16:04:24.79,0.248,-0.438,-0.838,26749361865.0,6.951,14.756,-22.622
1235,7,2016-01-09 16:04:24.83,0.252,-0.418,-0.836,26752521396.0,4.878,6.037,-29.939
1236,8,2016-01-09 16:04:24.87,0.266,-0.419,-0.809,26799606188.0,6.22,0.061,-35.427
1237,9,2016-01-09 16:04:24.91,0.292,-0.424,-0.802,26802731657.0,12.927,0.915,-32.012
1238,10,2016-01-09 16:04:24.95,0.333,-0.455,-0.776,26849152334.0,17.073,-3.78,-27.073
1239,11,2016-01-09 16:04:24.99,0.366,-0.467,-0.739,26853730250.0,22.866,-2.439,-21.951
1240,12,2016-01-09 16:04:25.03,0.383,-0.449,-0.744,26899191605.0,29.329,3.049,-18.171
1241,13,2016-01-09 16:04:25.07,0.417,-0.446,-0.751,26902636813.0,33.963,6.951,-16.341
1242,14,2016-01-09 16:04:25.11,0.435,-0.482,-0.708,26949066344.0,33.293,10.366,-14.207
1243,15,2016-01-09 16:04:25.15,0.458,-0.503,-0.675,26952342802.0,29.634,11.829,-9.39
1244,16,2016-01-09 16:04:25.19,0.467,-0.511,-0.659,26999594990.0,24.573,15.671,-6.22
1245,17,2016-01-09 16:04:25.23,0.474,-0.511,-0.646,27002376605.0,18.049,17.073,-5.427
1246,18,2016-01-09 16:04:25.27,0.486,-0.517,-0.636,27049175459.0,15.915,22.134,-6.28
1247,19,2016-01-09 16:04:25.31,0.494,-0.511,-0.615,27052518480.0,16.341,23.476,-8.171
1248,20,2016-01-09 16:04:25.34,0.507,-0.501,-0.611,27099436709.0,16.585,22.256,-7.317
1249,21,2016-01-09 16:04:25.39,0.519,-0.512,-0.591,27102452646.0,17.988,20.0,-3.72
1250,22,2016-01-09 16:04:25.43,0.529,-0.516,-0.579,27149067073.0,16.951,14.695,0.671
1251,23,2016-01-09 16:04:25.47,0.543,-0.527,-0.564,27152100563.0,14.146,12.866,2.744
1252,24,2016-01-09 16:04:25.51,0.552,-0.511,-0.558,27199064782.0,10.61,12.988,6.22
1253,25,2016-01-09 16:04:25.54,0.573,-0.497,-0.572,27202183115.0,8.293,14.573,16.28
1254,26,2016-01-09 16:04:25.58,0.601,-0.503,-0.586,27249453532.0,9.207,14.634,24.207
1255,27,2016-01-09 16:04:25.62,0.607,-0.535,-0.516,27252353115.0,8.415,20.0,30.427
1256,28,2016-01-09 16:04:25.66,0.634,-0.513,-0.521,,,,
1257,29,2016-01-09 16:04:25.70,0.568,-0.513,-0.558,27401951709.0,-2.683,28.963,50.183
1258,30,2016-01-09 16:04:25.74,0.568,-0.559,-0.539,27449110511.0,-7.805,30.854,63.293
1259,31,2016-01-09 16:04:25.78,0.594,-0.558,-0.498,27453795042.0,-8.841,36.524,75.732
1260,32,2016-01-09 16:04:25.82,0.541,-0.607,-0.466,27501923948.0,-13.902,40.854,85.671
1261,33,2016-01-09 16:04:25.86,0.506,-0.646,-0.437,27505789052.0,-23.415,43.598,95.488
1262,34,2016-01-09 16:04:25.90,0.47,-0.644,-0.418,27551684365.0,-29.695,49.024,102.866
1263,35,2016-01-09 16:04:25.94,0.385,-0.672,-0.431,27555679625.0,-35.976,50.915,105.793
1264,36,2016-01-09 16:04:25.98,0.294,-0.697,-0.458,27601618480.0,-42.805,55.976,105.549
1265,37,2016-01-09 16:04:26.02,0.236,-0.695,-0.493,27605639625.0,-47.866,58.049,98.841
1266,38,2016-01-09 16:04:26.06,0.139,-0.72,-0.544,27652199417.0,-50.976,55.854,83.902
1267,39,2016-01-09 16:04:26.14,0.046,-0.676,-0.646,27654687490.0,-51.037,56.646,64.329
1268,40,2016-01-09 16:04:26.18,0.038,-0.682,-0.639,27701527282.0,-53.476,47.744,58.963
1269,41,2016-01-09 16:04:26.22,0.064,-0.652,-0.664,27704141396.0,-53.476,29.695,53.293
1270,42,2016-01-09 16:04:26.26,0.001,-0.599,-0.722,27750448428.0,-59.085,-2.073,41.402
1271,43,2016-01-09 16:04:26.30,-0.066,-0.597,-0.749,27801374261.0,-62.5,-6.524,31.159
1272,44,2016-01-09 16:04:26.34,-0.037,-0.544,-0.798,27804000719.0,-62.744,-9.085,24.756
1273,45,2016-01-09 16:04:26.38,-0.038,-0.515,-0.836,27851137959.0,-64.634,-14.268,16.159
1274,46,2016-01-09 16:04:26.42,-0.004,-0.52,-0.839,27853773740.0,-63.476,-17.805,11.341
1275,47,2016-01-09 16:04:26.46,0.012,-0.496,-0.873,27952536500.0,-69.024,-22.988,8.11
1276,48,2016-01-09 16:04:26.50,-0.001,-0.474,-0.897,27955509260.0,-68.049,-28.049,7.5
1277,49,2016-01-09 16:04:26.54,-0.018,-0.455,-0.938,28000703167.0,-62.012,-22.317,5.793
1278,50,2016-01-09 16:04:26.58,-0.006,-0.412,-0.954,28003833375.0,-61.402,-10.183,3.78
1279,51,2016-01-09 16:04:26.62,-0.01,-0.372,-0.968,28099114365.0,-63.232,-2.317,2.866
1280,52,2016-01-09 16:04:26.66,-0.015,-0.325,-0.993,28102274573.0,-60.793,3.598,1.159
1281,53,2016-01-09 16:04:26.70,0.01,-0.273,-1.012,28149111136.0,-61.707,12.012,-0.061
1282,54,2016-01-09 16:04:26.74,-0.025,-0.283,-1.009,28152483636.0,-59.207,16.646,-4.39
1283,55,2016-01-09 16:04:26.78,-0.032,-0.24,-0.999,28199134730.0,-55.549,19.024,-11.037
1284,56,2016-01-09 16:04:26.82,-0.029,-0.194,-0.961,28202388427.0,-54.939,21.89,-15.061
1285,57,2016-01-09 16:04:26.86,-0.044,-0.186,-0.933,28249098584.0,-52.012,12.134,-16.585
1286,58,2016-01-09 16:04:26.90,-0.029,-0.115,-0.949,28252241240.0,-49.817,1.098,-19.268
1287,59,2016-01-09 16:04:26.94,0.027,-0.011,-0.923,28299155563.0,-47.012,-5.244,-23.11
1288,60,2016-01-09 16:04:26.98,-0.012,-0.038,-0.98,28450929261.0,-46.768,-8.537,-22.683
1289,61,2016-01-09 16:04:27.02,-0.106,-0.053,-1.122,28453163115.0,-48.598,-11.22,-24.512
1290,62,2016-01-09 16:04:27.10,-0.014,0.141,-1.004,28500484000.0,-52.744,-2.622,-37.622
1291,63,2016-01-09 16:04:27.14,0.111,0.072,-0.985,28503625771.0,-54.512,3.476,-30.427
1292,64,2016-01-09 16:04:27.17,0.014,0.103,-1.031,28551691344.0,-45.366,-31.707,-15.671
1293,65,2016-01-09 16:04:27.21,-0.139,0.146,-1.035,,,,
1294,66,2016-01-09 16:04:27.26,-0.133,0.1,-1.015,28603910250.0,-26.341,-30.183,-12.195
1295,67,2016-01-09 16:04:27.29,-0.123,0.138,-1.082,28699065771.0,-24.573,-34.512,-10.549
1296,68,2016-01-09 16:04:27.33,-0.092,0.27,-1.064,28702465406.0,-21.585,-41.098,4.329
1297,69,2016-01-09 16:04:27.37,-0.135,0.236,-1.007,28749266188.0,-18.902,-26.28,24.573
1298,70,2016-01-09 16:04:27.41,-0.258,0.141,-0.979,28751888948.0,-15.61,-5.305,11.89
1299,71,2016-01-09 16:04:27.45,-0.136,0.191,-0.948,,,,
1300,72,2016-01-09 16:04:27.49,-0.108,0.223,-1.007,28802327854.0,-12.317,-1.585,23.659
1301,73,2016-01-09 16:04:27.53,-0.069,0.21,-1.032,28849471136.0,-7.683,-3.171,28.049
1302,74,2016-01-09 16:04:27.57,-0.013,0.232,-1.041,28852010459.0,-8.232,6.646,34.146
1303,75,2016-01-09 16:04:27.61,-0.079,0.239,-1.04,28899228896.0,2.866,7.805,40.549
1304,76,2016-01-09 16:04:27.65,0.012,0.195,-1.037,28901637906.0,4.329,25.244,44.207
1305,77,2016-01-09 16:04:27.69,0.113,0.208,-1.015,29000426188.0,3.659,36.707,49.634
1306,78,2016-01-09 16:04:27.73,0.094,0.197,-0.948,29002959365.0,4.573,34.085,49.756
1307,79,2016-01-09 16:04:27.77,0.041,0.142,-0.936,29050310459.0,2.439,35.244,51.28
1308,80,2016-01-09 16:04:27.81,-0.005,0.173,-1.013,29052925198.0,-1.159,37.988,50.732
1309,81,2016-01-09 16:04:27.89,0.047,0.175,-1.051,29100972438.0,-2.988,32.439,47.561
1310,82,2016-01-09 16:04:27.93,0.068,0.152,-1.012,29103772385.0,-1.646,33.659,44.268
1311,83,2016-01-09 16:04:27.97,0.096,0.167,-1.015,29150653948.0,-2.805,35.0,40.366
1312,84,2016-01-09 16:04:28.01,0.086,0.186,-1.018,29153475927.0,-15.671,24.207,35.061
1313,85,2016-01-09 16:04:28.05,0.127,0.186,-1.028,29200347959.0,-15.183,16.402,32.439
1314,86,2016-01-09 16:04:28.09,0.102,0.189,-1.002,29203009260.0,-9.939,12.561,29.878
1315,87,2016-01-09 16:04:28.13,0.122,0.197,-0.991,29250802229.0,-5.793,9.451,27.012
1316,88,2016-01-09 16:04:28.17,0.128,0.162,-0.957,29253106396.0,-3.72,7.378,25.305
1317,89,2016-01-09 16:04:28.21,0.138,0.158,-0.949,29319882438.0,-2.134,0.793,25.854
1318,90,2016-01-09 16:04:28.25,0.082,0.148,-0.966,29341044990.0,0.915,-6.22,24.756
1319,91,2016-01-09 16:04:28.29,0.112,0.125,-0.942,29362501344.0,2.744,-8.537,26.829
1320,92,2016-01-09 16:04:28.33,0.128,0.117,-0.935,29450358374.0,2.622,-3.72,31.524
1321,93,2016-01-09 16:04:28.37,0.085,0.121,-1.0,29453094468.0,-0.671,-10.915,28.354
1322,94,2016-01-09 16:04:28.41,0.019,0.124,-1.042,29501533061.0,-5.305,-18.598,17.195
1323,95,2016-01-09 16:04:28.45,0.069,0.107,-1.032,29504350561.0,-11.28,-23.293,17.5
1324,96,2016-01-09 16:04:28.49,0.158,0.128,-1.079,29600241343.0,-6.22,-25.976,21.89
1325,97,2016-01-09 16:04:28.53,0.112,0.047,-1.14,29603044103.0,2.012,-32.317,8.537
1326,98,2016-01-09 16:04:28.57,0.048,0.15,-1.0,29651581707.0,6.585,-37.012,7.927
1327,99,2016-01-09 16:04:28.61,-0.154,0.133,-0.943,29654372540.0,10.915,-19.268,9.695
1328,100,2016-01-09 16:04:28.65,-0.104,0.082,-0.898,29701570822.0,16.037,-16.829,8.354
1329,101,2016-01-09 16:04:28.69,0.002,0.062,-0.949,29704347957.0,12.378,-14.085,19.268
1330,102,2016-01-09 16:04:28.73,-0.045,0.11,-1.016,29751552175.0,12.744,-8.476,19.512
1331,103,2016-01-09 16:04:28.77,-0.053,0.144,-1.027,29754371758.0,6.159,-8.232,10.549
1332,104,2016-01-09 16:04:28.85,-0.047,0.161,-1.016,29801649416.0,-1.829,0.427,12.805
1333,105,2016-01-09 16:04:28.89,-0.044,0.156,-1.012,29804487645.0,0.122,-3.659,20.061
1334,106,2016-01-09 16:04:28.93,-0.046,0.173,-1.04,29851592020.0,-5.0,-2.439,21.768
1335,107,2016-01-09 16:04:28.96,0.014,0.177,-1.028,29854377384.0,-7.317,-2.317,20.183
1336,108,2016-01-09 16:04:29.00,0.041,0.153,-1.032,29901568686.0,-6.829,-2.134,21.463
1337,109,2016-01-09 16:04:29.00,0.041,0.153,-1.032,30704027072.0,31.402,-26.89,-51.707
1338,110,2016-01-09 16:04:29.00,-0.199,-0.284,-0.927,29901568686.0,-6.829,-2.134,21.463
1339,111,2016-01-09 16:04:29.00,-0.199,-0.284,-0.927,30704027072.0,31.402,-26.89,-51.707
1340,112,2016-01-09 16:04:29.04,-0.015,0.176,-1.05,29904354519.0,-3.72,-1.341,18.11
1341,113,2016-01-09 16:04:29.09,-0.089,0.152,-1.051,29951595247.0,-6.646,4.085,7.927
1342,114,2016-01-09 16:04:29.12,-0.069,0.076,-0.979,29954396810.0,-7.866,11.037,1.28
1343,115,2016-01-09 16:04:29.16,0.006,0.082,-0.965,30001669416.0,-7.805,7.5,-4.939
1344,116,2016-01-09 16:04:29.20,0.031,0.137,-1.038,30003974208.0,-5.976,-4.939,-12.439
1345,117,2016-01-09 16:04:29.24,-0.102,0.088,-0.994,30051514832.0,-0.305,-12.622,-7.5
1346,118,2016-01-09 16:04:29.28,-0.165,0.011,-1.001,30054293425.0,1.89,-8.659,-14.329
1347,119,2016-01-09 16:04:29.32,-0.048,0.029,-1.048,30101492279.0,4.939,0.488,-30.854
1348,120,2016-01-09 16:04:29.36,-0.018,0.032,-1.024,30104292592.0,8.659,-12.439,-27.378
1349,121,2016-01-09 16:04:29.40,-0.117,-0.017,-1.025,30151558008.0,13.598,-17.927,-20.122
1350,122,2016-01-09 16:04:29.44,-0.108,-0.016,-1.035,30154365456.0,15.305,-6.768,-24.817
1351,123,2016-01-09 16:04:29.48,-0.089,0.004,-1.005,30201566291.0,18.78,-10.854,-29.329
1352,124,2016-01-09 16:04:29.52,-0.127,-0.022,-1.015,30204420041.0,21.585,-21.951,-24.39
1353,125,2016-01-09 16:04:29.56,-0.145,-0.053,-1.038,30251565613.0,19.573,-18.049,-20.61
1354,126,2016-01-09 16:04:29.64,-0.143,-0.084,-1.025,30398663114.0,18.537,-14.939,-22.927
1355,127,2016-01-09 16:04:29.68,-0.16,-0.106,-1.036,30451698945.0,20.427,-16.768,-19.512
1356,128,2016-01-09 16:04:29.72,-0.195,-0.131,-1.03,30454505768.0,22.744,-15.671,-18.72
1357,129,2016-01-09 16:04:29.76,-0.236,-0.14,-1.03,30501531967.0,23.841,-15.488,-20.183
1358,130,2016-01-09 16:04:29.80,-0.271,-0.15,-0.997,30504350665.0,27.927,-15.122,-22.5
1359,131,2016-01-09 16:04:29.84,-0.244,-0.155,-0.991,30551030299.0,30.793,-18.537,-28.537
1360,132,2016-01-09 16:04:29.88,-0.271,-0.173,-0.96,30651580092.0,32.134,-19.512,-38.354
1361,133,2016-01-09 16:04:29.92,-0.294,-0.21,-0.909,30654500612.0,31.585,-27.439,-42.073
1362,134,2016-01-09 16:04:29.96,-0.252,-0.227,-0.925,30701421968.0,32.866,-26.646,-47.561
1363,135,2016-01-09 16:04:30.04,-0.152,-0.346,-0.913,30798601446.0,29.39,-27.317,-50.0
1364,136,2016-01-09 16:04:30.08,-0.126,-0.379,-0.888,30803042957.0,23.476,-17.988,-52.317
1365,137,2016-01-09 16:04:30.12,-0.119,-0.382,-0.886,30848602541.0,20.671,-6.524,-56.037
1366,138,2016-01-09 16:04:30.16,-0.128,-0.354,-0.91,30852500197.0,16.463,6.098,-54.634
1367,139,2016-01-09 16:04:30.20,-0.091,-0.353,-0.881,30898602956.0,11.951,14.451,-51.524
1368,140,2016-01-09 16:04:30.24,-0.096,-0.347,-0.883,30903113217.0,7.256,12.683,-46.89
1369,141,2016-01-09 16:04:30.28,-0.157,-0.321,-0.916,30952932956.0,2.683,9.695,-42.134
1370,142,2016-01-09 16:04:30.32,-0.121,-0.284,-0.908,30970920925.0,-4.573,16.646,-37.683
1371,143,2016-01-09 16:04:30.36,-0.03,-0.268,-0.915,31000827019.0,-9.329,19.207,-28.354
1372,144,2016-01-09 16:04:30.40,-0.044,-0.265,-0.921,31050703269.0,-11.585,10.549,-18.11
1373,145,2016-01-09 16:04:30.44,-0.028,-0.265,-0.877,31072911134.0,-19.39,12.073,-14.146
1374,146,2016-01-09 16:04:30.48,0.002,-0.229,-0.913,31101863374.0,-28.476,18.232,-13.476
1375,147,2016-01-09 16:04:30.52,0.029,-0.229,-0.949,31124879675.0,-34.512,17.805,-15.915
1376,148,2016-01-09 16:04:30.59,0.063,-0.11,-1.023,31151845665.0,-34.939,13.598,-15.732
1377,149,2016-01-09 16:04:30.64,0.086,-0.092,-1.002,31163528530.0,-37.195,15.61,-14.329
1378,150,2016-01-09 16:04:30.68,0.033,-0.089,-0.99,31198574050.0,-40.122,10.976,-14.146
1379,151,2016-01-09 16:04:30.71,0.049,-0.056,-1.008,31203045769.0,-46.707,0.61,-14.39
1380,152,2016-01-09 16:04:30.76,-0.021,-0.045,-1.071,31248599103.0,-49.817,-1.22,-11.402
1381,153,2016-01-09 16:04:30.79,-0.039,0.089,-1.13,31252981655.0,-49.146,-8.293,-8.598
1382,154,2016-01-09 16:04:30.83,0.069,0.323,-1.095,31298703894.0,-50.793,-1.22,-3.902
1383,155,2016-01-09 16:04:30.87,-0.037,0.159,-0.97,,,,
1384,156,2016-01-09 16:04:30.92,-0.037,0.105,-1.036,31348620040.0,-44.878,-17.439,-3.11
1385,157,2016-01-09 16:04:30.95,-0.06,0.344,-1.041,31450302071.0,-37.744,-16.646,1.159
1386,158,2016-01-09 16:04:30.99,-0.091,0.265,-0.99,31462410717.0,-18.78,-29.695,4.085
1387,159,2016-01-09 16:04:31.03,-0.06,0.262,-1.079,31550852592.0,-25.915,-11.463,4.878
1388,160,2016-01-09 16:04:31.07,-0.074,0.297,-1.067,31641532280.0,-20.915,-10.244,5.793
1389,161,2016-01-09 16:04:31.11,-0.09,0.226,-1.078,31648637020.0,-3.354,-14.573,2.866
1390,162,2016-01-09 16:04:31.15,-0.084,0.193,-1.04,31652958478.0,-7.683,-1.037,-0.671
1391,163,2016-01-09 16:04:31.19,-0.083,0.131,-1.001,31701690249.0,-6.951,-1.524,-2.073
1392,164,2016-01-09 16:04:31.23,-0.103,0.121,-1.031,31704486030.0,1.768,-7.317,-0.305
1393,165,2016-01-09 16:04:31.27,-0.126,0.157,-1.048,31751023008.0,1.951,-3.476,0.244
1394,166,2016-01-09 16:04:31.31,-0.1,0.147,-1.087,31798569883.0,11.098,-2.5,-3.232
1395,167,2016-01-09 16:04:31.35,-0.054,0.093,-1.097,31803015092.0,23.11,-0.549,-5.976
1396,168,2016-01-09 16:04:31.39,-0.062,0.042,-1.077,31850186811.0,25.854,2.744,-3.963
1397,169,2016-01-09 16:04:31.43,-0.029,0.027,-1.112,31863751550.0,22.256,3.841,4.573
1398,170,2016-01-09 16:04:31.47,-0.02,-0.004,-1.058,31902724155.0,23.537,1.585,14.268
1399,171,2016-01-09 16:04:31.51,-0.021,-0.044,-1.073,31918540822.0,28.841,2.561,23.72
1400,172,2016-01-09 16:04:31.55,-0.045,-0.073,-1.014,31950770404.0,34.756,9.756,22.683
1401,173,2016-01-09 16:04:31.59,-0.043,-0.13,-0.955,31968033946.0,36.707,20.427,21.951
1402,174,2016-01-09 16:04:31.63,-0.06,-0.168,-0.937,32005789309.0,44.451,31.585,20.671
1403,175,2016-01-09 16:04:31.67,-0.075,-0.235,-0.909,32020657748.0,50.244,31.22,13.598
1404,176,2016-01-09 16:04:31.71,-0.009,-0.233,-0.903,32050851603.0,47.012,33.354,7.988
1405,177,2016-01-09 16:04:31.75,0.033,-0.223,-0.862,32068096134.0,44.634,27.744,3.293
1406,178,2016-01-09 16:04:31.79,0.065,-0.229,-0.874,32105813008.0,42.073,15.122,-0.549
1407,179,2016-01-09 16:04:31.83,0.056,-0.252,-0.899,32120537800.0,37.195,6.951,-1.402
1408,180,2016-01-09 16:04:31.87,0.022,-0.294,-0.909,32150813790.0,29.817,7.744,-2.073
1409,181,2016-01-09 16:04:31.91,0.03,-0.333,-0.931,32167941707.0,20.854,12.256,-4.207
1410,182,2016-01-09 16:04:31.95,0.05,-0.358,-0.899,32206678737.0,14.756,12.927,-5.427
1411,183,2016-01-09 16:04:31.99,0.058,-0.311,-0.91,32221660143.0,8.476,2.927,-5.732
1412,184,2016-01-09 16:04:32.03,0.049,-0.286,-0.931,32250856184.0,3.415,-6.037,-7.317
1413,185,2016-01-09 16:04:32.07,0.094,-0.297,-0.914,32267812331.0,-1.341,-7.866,-2.622
1414,186,2016-01-09 16:04:32.11,0.081,-0.266,-0.935,32301419676.0,-10.244,-3.659,4.024
1415,187,2016-01-09 16:04:32.15,0.058,-0.192,-0.964,32319181342.0,-18.476,-7.195,3.598
