,index,timestamp,ACCEL_X,ACCEL_Y,ACCEL_Z,Time_since_start_y,GYRO_X,GYRO_Y,GYRO_Z
0,0,2016-01-09 16:16:55.47,-0.035,0.084,-1.006,27303441969.0,-3.415,2.439,2.561
1,1,2016-01-09 16:16:55.55,-0.027,0.085,-1.008,27358439208.0,-3.171,2.927,0.732
2,2,2016-01-09 16:16:55.59,-0.026,0.089,-1.013,27362335563.0,-2.744,3.841,0.0
3,3,2016-01-09 16:16:55.63,-0.027,0.086,-1.015,27397801969.0,-1.646,2.5,-2.256
4,4,2016-01-09 16:16:55.67,-0.024,0.089,-1.013,27401220563.0,-1.524,0.976,-2.561
5,5,2016-01-09 16:16:55.71,-0.018,0.089,-1.009,27446639677.0,-0.732,-1.098,-1.768
6,6,2016-01-09 16:16:55.75,-0.03,0.083,-1.017,27449663896.0,-1.28,-1.89,-1.707
7,7,2016-01-09 16:16:55.79,-0.038,0.084,-1.016,27495311396.0,-3.293,0.061,-2.134
8,8,2016-01-09 16:16:55.83,-0.03,0.095,-1.013,27498594729.0,-3.78,1.707,-2.134
9,9,2016-01-09 16:16:55.87,-0.031,0.093,-1.01,27544107959.0,-1.646,1.098,-2.134
10,10,2016-01-09 16:16:55.91,-0.029,0.095,-1.008,27547318740.0,-1.463,1.341,-2.683
11,11,2016-01-09 16:16:55.95,-0.028,0.097,-1.014,27592803949.0,-1.524,1.463,-2.561
12,12,2016-01-09 16:16:55.99,-0.024,0.095,-1.014,27595905927.0,-1.402,0.793,-2.439
13,13,2016-01-09 16:16:56.03,-0.012,0.087,-1.017,27641630147.0,-1.707,-0.183,-2.073
14,14,2016-01-09 16:16:56.07,-0.011,0.086,-1.027,27644782855.0,-2.744,-0.61,-0.732
15,15,2016-01-09 16:16:56.11,-0.021,0.089,-1.011,27690648376.0,-2.866,-0.122,1.829
16,16,2016-01-09 16:16:56.15,-0.024,0.088,-1.004,27693500511.0,-2.012,3.354,3.659
17,17,2016-01-09 16:16:56.19,-0.037,0.088,-1.007,27739226969.0,-3.171,4.146,5.305
18,18,2016-01-09 16:16:56.23,-0.022,0.093,-1.011,27742130563.0,-2.378,1.524,6.159
19,19,2016-01-09 16:16:56.27,0.001,0.108,-1.045,27787847906.0,-1.768,-0.793,8.049
20,20,2016-01-09 16:16:56.30,-0.011,0.117,-1.105,,,,
21,21,2016-01-09 16:16:56.35,-0.001,0.083,-1.099,27836746761.0,-4.817,3.171,15.854
22,22,2016-01-09 16:16:56.39,0.062,0.056,-1.017,27839866917.0,-2.622,17.195,12.256
23,23,2016-01-09 16:16:56.42,0.091,0.07,-0.957,27885118063.0,-2.5,29.451,5.366
24,24,2016-01-09 16:16:56.47,0.101,0.065,-0.957,27985328896.0,1.037,35.305,4.695
25,25,2016-01-09 16:16:56.50,0.1,0.079,-0.957,27987618792.0,8.232,36.646,4.146
26,26,2016-01-09 16:16:56.54,0.091,0.065,-0.945,,,,
27,27,2016-01-09 16:16:56.58,0.147,0.069,-0.98,28035541344.0,17.561,36.22,1.585
28,28,2016-01-09 16:16:56.62,0.181,0.074,-1.009,28081838271.0,15.976,29.451,5.122
29,29,2016-01-09 16:16:56.66,0.162,0.042,-0.996,28084259313.0,13.963,23.963,7.256
30,30,2016-01-09 16:16:56.70,0.187,0.059,-0.968,28130507699.0,13.841,20.0,5.305
31,31,2016-01-09 16:16:56.74,0.215,0.052,-1.003,28132980355.0,10.854,12.256,3.659
32,32,2016-01-09 16:16:56.78,0.195,0.023,-0.989,28179462125.0,6.646,3.902,2.439
33,33,2016-01-09 16:16:56.82,0.141,-0.025,-0.917,28226693792.0,7.317,3.415,7.134
34,34,2016-01-09 16:16:56.86,0.131,-0.011,-0.956,28229616135.0,3.537,2.622,14.024
35,35,2016-01-09 16:16:56.90,0.179,0.009,-0.995,28275399677.0,10.854,3.72,15.976
36,36,2016-01-09 16:16:56.94,0.213,-0.01,-0.967,28278486135.0,16.829,5.549,11.037
37,37,2016-01-09 16:16:56.98,0.219,-0.021,-0.928,28324176761.0,6.28,9.329,8.72
38,38,2016-01-09 16:16:57.06,0.205,-0.029,-0.95,28328258323.0,-0.366,6.463,9.756
39,39,2016-01-09 16:16:57.10,0.21,-0.015,-0.969,28372886032.0,-1.707,5.61,7.622
40,40,2016-01-09 16:16:57.14,0.199,-0.021,-1.022,28375736084.0,0.915,1.341,7.866
41,41,2016-01-09 16:16:57.18,0.202,-0.025,-1.039,28421714001.0,-0.366,-0.793,6.28
42,42,2016-01-09 16:16:57.22,0.203,-0.028,-0.999,28424670719.0,-0.061,-2.073,9.085
43,43,2016-01-09 16:16:57.26,0.177,-0.065,-0.975,28470418896.0,-3.232,-6.829,15.0
44,44,2016-01-09 16:16:57.30,0.172,-0.004,-0.97,28473309989.0,-7.134,-4.939,15.549
45,45,2016-01-09 16:16:57.34,0.193,-0.008,-0.944,28518876446.0,-3.476,-0.488,15.366
46,46,2016-01-09 16:16:57.38,0.176,-0.04,-0.91,28523695769.0,-6.829,-0.793,13.659
47,47,2016-01-09 16:16:57.42,0.183,-0.04,-0.935,28567911291.0,-8.598,-2.805,10.915
48,48,2016-01-09 16:16:57.46,0.191,-0.055,-0.989,28571047229.0,-3.598,-5.793,10.061
49,49,2016-01-09 16:16:57.50,0.172,-0.022,-1.02,28616737333.0,-2.134,-4.512,10.366
50,50,2016-01-09 16:16:57.54,0.115,-0.014,-1.008,28620617073.0,0.793,0.427,10.305
51,51,2016-01-09 16:16:57.58,0.166,-0.023,-1.013,28665412020.0,3.659,6.463,9.085
52,52,2016-01-09 16:16:57.62,0.152,-0.003,-0.993,28669424208.0,2.988,0.671,8.902
53,53,2016-01-09 16:16:57.66,0.152,-0.013,-0.958,28714218791.0,0.122,-0.976,7.256
54,54,2016-01-09 16:16:57.70,0.182,-0.04,-0.97,28718296812.0,-1.402,3.232,5.0
55,55,2016-01-09 16:16:57.74,0.141,-0.028,-0.949,28762844781.0,-4.939,1.28,4.146
56,56,2016-01-09 16:16:57.78,0.191,-0.019,-0.993,28863363270.0,-4.39,3.354,4.939
57,57,2016-01-09 16:16:57.82,0.217,-0.084,-0.982,28865451135.0,-1.463,2.317,10.0
58,58,2016-01-09 16:16:57.86,0.199,-0.057,-1.009,28910714364.0,0.671,-2.012,5.427
59,59,2016-01-09 16:16:57.90,0.16,-0.006,-1.018,28913375770.0,2.195,4.207,9.695
60,60,2016-01-09 16:16:57.94,0.176,-0.063,-0.984,28959298062.0,-0.061,4.085,10.488
61,61,2016-01-09 16:16:57.98,0.186,-0.022,-0.968,28963330927.0,-0.488,4.39,3.902
62,62,2016-01-09 16:16:58.02,0.119,-0.001,-0.973,29008931447.0,-5.671,5.0,-3.11
63,63,2016-01-09 16:16:58.06,0.139,0.022,-0.976,29010971916.0,-10.732,-1.22,-7.195
64,64,2016-01-09 16:16:58.10,0.197,0.042,-0.931,29057038479.0,-11.707,-19.207,-7.561
65,65,2016-01-09 16:16:58.14,0.177,0.032,-0.944,29103864573.0,-9.939,-32.073,-11.768
66,66,2016-01-09 16:16:58.18,0.123,0.021,-0.989,29107116708.0,-17.378,-34.024,-9.146
67,67,2016-01-09 16:16:58.21,0.133,0.042,-1.03,29152623010.0,-15.793,-33.11,-4.878
68,68,2016-01-09 16:16:58.26,0.061,-0.001,-0.999,29156062541.0,-14.878,-28.78,-1.707
69,69,2016-01-09 16:16:58.29,0.089,0.018,-0.989,29202013583.0,-18.78,-18.171,2.378
70,70,2016-01-09 16:16:58.33,0.054,0.026,-0.978,29205469885.0,-20.488,-21.951,5.671
71,71,2016-01-09 16:16:58.37,0.05,0.034,-1.013,,,,
72,72,2016-01-09 16:16:58.41,-0.006,0.041,-1.005,29253709885.0,-17.988,-14.024,10.732
73,73,2016-01-09 16:16:58.45,0.017,0.064,-1.024,29298891343.0,-16.951,-11.707,15.793
74,74,2016-01-09 16:16:58.49,-0.023,0.078,-1.033,29302237229.0,-18.171,-14.573,16.524
75,75,2016-01-09 16:16:58.57,-0.037,0.081,-0.983,29347620041.0,-16.829,-12.256,8.841
76,76,2016-01-09 16:16:58.61,-0.057,0.082,-0.981,29349742437.0,-16.463,-13.354,8.11
77,77,2016-01-09 16:16:58.65,-0.066,0.094,-0.989,29396359312.0,-15.244,-9.939,5.0
78,78,2016-01-09 16:16:58.69,-0.05,0.11,-0.997,29398553322.0,-9.268,-6.646,5.0
79,79,2016-01-09 16:16:58.73,-0.061,0.103,-1.014,29446056083.0,-5.671,-4.878,4.756
80,80,2016-01-09 16:16:58.81,-0.065,0.091,-1.039,29448326864.0,-4.939,-5.427,3.72
81,81,2016-01-09 16:16:58.85,-0.079,0.119,-1.014,29543588739.0,-2.134,-5.61,2.073
82,82,2016-01-09 16:16:58.89,-0.091,0.089,-1.027,29545586083.0,-1.28,-3.049,0.061
83,83,2016-01-09 16:16:58.93,-0.08,0.114,-1.02,29592355250.0,0.976,-4.085,0.732
84,84,2016-01-09 16:16:58.97,-0.072,0.134,-1.026,29594488687.0,6.28,-1.28,-1.402
85,85,2016-01-09 16:16:59.01,-0.082,0.129,-1.044,29641110354.0,1.829,-2.866,-1.159
86,86,2016-01-09 16:16:59.05,-0.05,0.118,-1.056,29643209677.0,-0.488,-2.927,-0.732
87,87,2016-01-09 16:16:59.09,-0.042,0.13,-1.018,29786341708.0,-2.622,-4.085,-3.354
88,88,2016-01-09 16:16:59.13,-0.078,0.111,-0.966,29790441135.0,-4.024,-3.659,-3.354
89,89,2016-01-09 16:16:59.17,-0.067,0.123,-0.952,29835127802.0,-5.915,-5.305,-0.915
90,90,2016-01-09 16:16:59.21,-0.058,0.13,-0.949,29838908687.0,-8.354,-5.122,-1.463
91,91,2016-01-09 16:16:59.25,-0.083,0.135,-0.985,29887279989.0,-6.951,-7.134,-0.305
92,92,2016-01-09 16:16:59.29,-0.108,0.151,-1.002,29890875771.0,-9.268,-7.744,-2.683
93,93,2016-01-09 16:16:59.33,-0.116,0.134,-1.025,29932604468.0,-8.902,-8.598,-4.817
94,94,2016-01-09 16:16:59.37,-0.109,0.151,-1.018,29936115770.0,-8.659,-9.573,-3.232
95,95,2016-01-09 16:16:59.41,-0.079,0.15,-1.027,29981317958.0,-7.683,-5.915,-2.439
96,96,2016-01-09 16:16:59.45,-0.082,0.139,-1.034,29984420354.0,-8.659,-7.561,-0.671
97,97,2016-01-09 16:16:59.49,-0.118,0.162,-1.017,30030060197.0,-9.756,-3.354,-1.89
98,98,2016-01-09 16:16:59.53,-0.136,0.188,-0.968,30033882072.0,-5.061,0.183,-4.085
99,99,2016-01-09 16:16:59.57,-0.095,0.145,-0.964,30090063634.0,-2.805,-2.5,-5.0
100,100,2016-01-09 16:16:59.61,-0.119,0.168,-0.979,30139991239.0,-7.378,-9.878,-1.768
101,101,2016-01-09 16:16:59.65,-0.109,0.196,-1.0,30147654833.0,-11.159,-5.488,0.793
102,102,2016-01-09 16:16:59.69,-0.124,0.193,-1.044,30150267073.0,-8.902,-3.293,4.207
103,103,2016-01-09 16:16:59.73,-0.178,0.216,-1.008,30180528791.0,-8.476,-3.902,2.256
104,104,2016-01-09 16:16:59.77,-0.161,0.21,-0.993,30187050718.0,-2.683,-5.0,-1.402
105,105,2016-01-09 16:16:59.81,-0.123,0.212,-1.003,30227232854.0,-0.427,-9.634,-1.28
106,106,2016-01-09 16:16:59.85,-0.143,0.201,-1.006,30273495247.0,-6.159,-7.988,1.037
107,107,2016-01-09 16:16:59.89,-0.137,0.215,-1.0,30277661132.0,-8.415,-5.061,0.915
108,108,2016-01-09 16:16:59.93,-0.143,0.208,-0.996,30322289259.0,-7.561,-4.146,-0.61
109,109,2016-01-09 16:16:59.97,-0.172,0.199,-1.007,30326438374.0,-5.061,-4.451,-1.22
110,110,2016-01-09 16:17:00.01,-0.193,0.208,-0.983,30371007226.0,-5.549,-4.207,-3.476
111,111,2016-01-09 16:17:00.08,-0.154,0.227,-0.989,30375090925.0,-5.061,-4.756,2.744
112,112,2016-01-09 16:17:00.12,-0.125,0.209,-1.016,30419762644.0,-9.756,-8.841,4.451
113,113,2016-01-09 16:17:00.16,-0.127,0.212,-1.03,30433698426.0,-5.549,-6.159,4.756
114,114,2016-01-09 16:17:00.20,-0.196,0.224,-1.016,30470005613.0,0.061,1.22,1.402
115,115,2016-01-09 16:17:00.24,-0.203,0.236,-0.978,30488269519.0,7.561,8.841,-3.293
116,116,2016-01-09 16:17:00.28,-0.192,0.241,-0.959,30519293789.0,8.293,6.585,-1.159
117,117,2016-01-09 16:17:00.32,-0.132,0.199,-0.97,30584577124.0,-5.244,3.354,3.963
118,118,2016-01-09 16:17:00.36,-0.146,0.225,-0.986,30599665144.0,-8.293,1.159,-0.915
119,119,2016-01-09 16:17:00.40,-0.148,0.239,-0.98,30712237488.0,-4.756,-1.707,-2.195
120,120,2016-01-09 16:17:00.44,-0.149,0.207,-1.006,30716502540.0,-4.939,-0.549,-2.317
121,121,2016-01-09 16:17:00.48,-0.155,0.24,-0.988,30761687488.0,-6.037,-0.915,-0.732
122,122,2016-01-09 16:17:00.52,-0.151,0.242,-0.984,30765345978.0,-1.22,0.061,1.829
123,123,2016-01-09 16:17:00.56,-0.162,0.21,-1.0,30813194363.0,-3.78,0.244,2.561
124,124,2016-01-09 16:17:00.60,-0.181,0.22,-0.997,30815892176.0,-6.402,2.927,-1.524
125,125,2016-01-09 16:17:00.64,-0.216,0.229,-0.995,30864731446.0,-4.085,-0.366,-7.134
126,126,2016-01-09 16:17:00.68,-0.215,0.277,-0.977,30877303009.0,-5.244,-4.451,-8.049
127,127,2016-01-09 16:17:00.72,-0.178,0.236,-0.986,30918600197.0,-3.598,-3.049,-5.793
128,128,2016-01-09 16:17:00.76,-0.158,0.258,-1.005,30926724728.0,-3.963,-1.28,-0.61
129,129,2016-01-09 16:17:00.80,-0.18,0.238,-1.001,30966258321.0,-4.329,1.951,-2.622
130,130,2016-01-09 16:17:00.84,-0.156,0.228,-0.991,30974500300.0,-2.805,0.793,-2.866
131,131,2016-01-09 16:17:00.88,-0.167,0.236,-0.971,31018232487.0,-2.744,-0.549,-1.646
132,132,2016-01-09 16:17:00.92,-0.156,0.263,-0.967,31055764623.0,-1.341,-0.305,0.427
133,133,2016-01-09 16:17:00.96,-0.178,0.234,-0.983,31073797540.0,0.366,0.793,1.829
134,134,2016-01-09 16:17:01.00,-0.152,0.26,-0.984,31108447852.0,-1.22,2.5,1.768
135,135,2016-01-09 16:17:01.04,-0.17,0.233,-0.978,31122921967.0,-1.22,0.0,2.927
136,136,2016-01-09 16:17:01.08,-0.149,0.241,-0.975,31153256498.0,-4.695,-1.707,5.183
137,137,2016-01-09 16:17:01.12,-0.189,0.239,-0.978,31171529102.0,-3.415,-4.573,4.695
138,138,2016-01-09 16:17:01.16,-0.186,0.24,-0.974,31202216446.0,-4.451,-2.805,2.805
139,139,2016-01-09 16:17:01.20,-0.183,0.248,-0.992,31221852279.0,-4.207,-3.841,1.22
140,140,2016-01-09 16:17:01.24,-0.204,0.262,-0.999,31255248842.0,-3.537,-4.817,0.488
141,141,2016-01-09 16:17:01.28,-0.209,0.276,-0.99,31265571446.0,-1.951,-2.744,0.061
142,142,2016-01-09 16:17:01.32,-0.181,0.26,-1.007,31297358686.0,-1.037,-1.89,0.976
143,143,2016-01-09 16:17:01.36,-0.2,0.246,-0.994,31301555666.0,-1.098,-2.195,1.28
144,144,2016-01-09 16:17:01.40,-0.214,0.247,-0.972,31346064466.0,-3.537,2.195,-2.927
145,145,2016-01-09 16:17:01.44,-0.176,0.232,-0.96,31350112904.0,0.244,1.829,-3.78
146,146,2016-01-09 16:17:01.48,-0.146,0.234,-0.969,31394750454.0,-0.122,0.854,-4.39
147,147,2016-01-09 16:17:01.52,-0.176,0.253,-0.968,31398928111.0,0.915,1.524,-9.878
148,148,2016-01-09 16:17:01.56,-0.195,0.236,-0.994,31443675040.0,3.049,3.841,-11.28
149,149,2016-01-09 16:17:01.60,-0.203,0.214,-0.992,31447843373.0,-0.183,-0.427,-11.159
150,150,2016-01-09 16:17:01.64,-0.177,0.235,-0.971,31492655301.0,0.427,-3.476,-12.439
151,151,2016-01-09 16:17:01.68,-0.175,0.24,-1.0,31594328060.0,0.244,-5.427,-10.61
152,152,2016-01-09 16:17:01.71,-0.172,0.262,-1.049,31641615041.0,-0.305,-7.134,-9.268
153,153,2016-01-09 16:17:01.75,-0.179,0.274,-1.059,,,,
154,154,2016-01-09 16:17:01.80,-0.166,0.262,-1.058,31690463478.0,0.305,5.854,1.098
155,155,2016-01-09 16:17:01.83,-0.172,0.341,-1.09,31716768790.0,15.854,13.293,-1.159
156,156,2016-01-09 16:17:01.88,-0.219,0.284,-1.031,31739257123.0,12.012,23.476,-6.463
157,157,2016-01-09 16:17:01.91,-0.199,0.208,-0.932,31756641342.0,0.61,21.951,-6.28
158,158,2016-01-09 16:17:01.95,-0.165,0.209,-0.848,31784743529.0,-8.963,14.451,-7.866
159,159,2016-01-09 16:17:01.99,-0.159,0.204,-0.81,31789006394.0,-21.22,8.171,-16.707
160,160,2016-01-09 16:17:02.03,-0.14,0.253,-0.862,31833525560.0,-27.256,6.951,-18.841
161,161,2016-01-09 16:17:02.07,-0.154,0.322,-0.919,31837674987.0,-22.988,1.646,-12.5
162,162,2016-01-09 16:17:02.11,-0.164,0.306,-0.956,31882247904.0,-17.378,-0.976,-7.012
163,163,2016-01-09 16:17:02.15,-0.158,0.355,-0.99,31886269883.0,-9.207,-2.622,-6.098
164,164,2016-01-09 16:17:02.19,-0.168,0.333,-1.0,31931396966.0,-3.902,-3.72,-6.22
165,165,2016-01-09 16:17:02.23,-0.171,0.348,-1.009,31935360299.0,-1.341,-2.744,-4.146
166,166,2016-01-09 16:17:02.27,-0.125,0.314,-1.066,31988992435.0,-0.854,0.61,-1.22
167,167,2016-01-09 16:17:02.31,-0.141,0.325,-1.024,31997404467.0,-0.976,3.293,-1.341
168,168,2016-01-09 16:17:02.35,-0.135,0.273,-0.956,32042964676.0,-0.915,3.841,-4.451
169,169,2016-01-09 16:17:02.39,-0.159,0.3,-0.942,32054219832.0,-5.427,7.805,-3.598
170,170,2016-01-09 16:17:02.47,-0.156,0.293,-1.004,32091601968.0,-6.707,0.0,-9.573
171,171,2016-01-09 16:17:02.51,-0.181,0.265,-0.999,32102507540.0,-1.768,1.707,-6.951
172,172,2016-01-09 16:17:02.55,-0.21,0.286,-0.997,32141052383.0,8.598,-0.854,-7.805
173,173,2016-01-09 16:17:02.59,-0.194,0.264,-0.99,32151983633.0,7.988,3.476,-9.146
174,174,2016-01-09 16:17:02.63,-0.16,0.232,-1.0,32189367435.0,10.427,2.5,-9.268
175,175,2016-01-09 16:17:02.67,-0.169,0.233,-1.0,32200682123.0,8.232,4.817,-12.866
176,176,2016-01-09 16:17:02.71,-0.195,0.229,-1.017,32238150664.0,9.817,3.78,-13.902
177,177,2016-01-09 16:17:02.75,-0.194,0.23,-1.023,32249605873.0,11.28,6.037,-13.232
178,178,2016-01-09 16:17:02.79,-0.155,0.23,-1.03,32286461289.0,12.256,13.354,-7.988
179,179,2016-01-09 16:17:02.83,-0.078,0.236,-1.019,32297288164.0,10.976,19.634,-10.0
180,180,2016-01-09 16:17:02.87,-0.081,0.2,-0.97,32336772903.0,9.634,26.829,-12.988
181,181,2016-01-09 16:17:02.91,-0.07,0.212,-0.943,32348363476.0,9.268,30.61,-14.634
182,182,2016-01-09 16:17:02.95,-0.075,0.215,-0.954,32385832956.0,10.915,24.817,-15.061
183,183,2016-01-09 16:17:02.99,-0.038,0.198,-0.946,32486345612.0,10.61,24.573,-12.988
184,184,2016-01-09 16:17:03.03,-0.003,0.234,-0.958,32501255300.0,8.963,24.878,-13.415
185,185,2016-01-09 16:17:03.07,0.001,0.234,-0.984,32536851289.0,7.988,23.293,-13.293
186,186,2016-01-09 16:17:03.11,-0.005,0.222,-0.989,32552028373.0,8.659,22.622,-12.988
187,187,2016-01-09 16:17:03.15,0.052,0.188,-0.99,32575747071.0,8.232,24.451,-12.134
188,188,2016-01-09 16:17:03.19,0.076,0.164,-1.01,32578291341.0,11.524,19.756,-8.598
189,189,2016-01-09 16:17:03.23,0.098,0.147,-1.02,32616272955.0,11.22,22.195,-8.293
190,190,2016-01-09 16:17:03.27,0.076,0.114,-1.01,32618851028.0,13.72,23.841,-7.988
191,191,2016-01-09 16:17:03.31,0.083,0.129,-1.031,32665044571.0,15.976,25.915,-8.171
192,192,2016-01-09 16:17:03.35,0.103,0.155,-1.057,32667708581.0,20.305,32.744,-12.256
193,193,2016-01-09 16:17:03.39,0.159,0.104,-1.067,32713705195.0,20.976,42.683,-8.232
194,194,2016-01-09 16:17:03.43,0.136,0.117,-0.954,32716247382.0,9.878,34.39,-9.085
195,195,2016-01-09 16:17:03.47,0.112,0.112,-0.856,32762777124.0,6.098,47.622,-13.659
196,196,2016-01-09 16:17:03.54,0.22,0.115,-0.907,,,,
197,197,2016-01-09 16:17:03.58,0.289,0.145,-0.932,32818669517.0,-9.939,35.732,-18.78
198,198,2016-01-09 16:17:03.62,0.241,0.165,-0.953,32858690664.0,-12.195,17.927,-19.573
199,199,2016-01-09 16:17:03.67,0.288,0.183,-1.012,32877170873.0,-11.585,14.024,-19.634
200,200,2016-01-09 16:17:03.70,0.191,0.189,-0.966,32908178893.0,-15.671,6.098,-15.183
201,201,2016-01-09 16:17:03.74,0.209,0.177,-0.957,32926266758.0,-13.232,2.134,-16.585
202,202,2016-01-09 16:17:03.78,0.234,0.195,-0.99,32957010508.0,-8.537,1.951,-10.366
203,203,2016-01-09 16:17:03.82,0.255,0.266,-1.025,32975318164.0,-13.415,2.805,-3.902
204,204,2016-01-09 16:17:03.86,0.238,0.222,-0.945,33005746914.0,-8.476,9.024,-5.183
205,205,2016-01-09 16:17:03.90,0.216,0.242,-0.888,33023993112.0,-8.171,6.28,-9.268
206,206,2016-01-09 16:17:03.94,0.27,0.219,-0.854,33054534414.0,-9.329,15.732,-10.793
207,207,2016-01-09 16:17:03.98,0.239,0.213,-0.849,33073169831.0,-9.329,13.659,-12.622
208,208,2016-01-09 16:17:04.02,0.263,0.257,-0.903,33103304571.0,-5.915,15.366,-14.573
209,209,2016-01-09 16:17:04.06,0.361,0.221,-0.919,33121591550.0,-3.11,12.134,-17.561
210,210,2016-01-09 16:17:04.10,0.348,0.219,-1.007,33208573060.0,0.427,16.768,-12.866
211,211,2016-01-09 16:17:04.14,0.347,0.36,-1.052,33239624883.0,4.634,21.768,0.122
212,212,2016-01-09 16:17:04.18,0.276,0.22,-0.931,33268831862.0,13.598,28.78,11.098
213,213,2016-01-09 16:17:04.22,0.411,0.093,-0.84,33271321237.0,10.671,36.89,7.317
214,214,2016-01-09 16:17:04.26,0.413,0.103,-0.846,33393617382.0,4.512,37.134,-2.561
215,215,2016-01-09 16:17:04.30,0.391,0.157,-0.889,33397809518.0,15.305,38.659,-7.439
216,216,2016-01-09 16:17:04.34,0.303,0.123,-0.863,33442296445.0,26.951,49.329,-11.524
217,217,2016-01-09 16:17:04.38,0.397,0.076,-0.802,33446333424.0,26.28,42.683,-19.146
218,218,2016-01-09 16:17:04.42,0.489,0.118,-0.824,33490985976.0,33.598,19.634,-18.963
219,219,2016-01-09 16:17:04.46,0.482,0.17,-0.886,33494972278.0,43.841,3.354,-19.939
220,220,2016-01-09 16:17:04.50,0.518,0.097,-0.905,33539751601.0,41.524,-1.646,-22.256
221,221,2016-01-09 16:17:04.54,0.462,0.083,-0.882,33551982955.0,30.488,-8.293,-23.476
222,222,2016-01-09 16:17:04.58,0.424,0.088,-0.851,33589611132.0,22.134,-7.317,-22.378
223,223,2016-01-09 16:17:04.62,0.427,0.052,-0.875,33607499726.0,25.0,-13.11,-22.744
224,224,2016-01-09 16:17:04.66,0.396,0.096,-0.891,33645234414.0,24.756,-26.707,-24.268
225,225,2016-01-09 16:17:04.70,0.397,0.112,-0.89,33657555143.0,27.073,-34.878,-18.415
226,226,2016-01-09 16:17:04.74,0.428,0.074,-0.908,33688264101.0,25.549,-46.402,-10.61
227,227,2016-01-09 16:17:04.78,0.39,0.06,-0.89,33706236393.0,18.537,-48.659,-5.549
228,228,2016-01-09 16:17:04.82,0.248,0.028,-0.895,33742876705.0,14.695,-36.159,2.195
229,229,2016-01-09 16:17:04.86,0.212,0.04,-0.902,33755041809.0,9.451,-27.317,6.341
230,230,2016-01-09 16:17:04.90,0.178,0.025,-0.93,33785805247.0,2.012,-32.5,3.415
231,231,2016-01-09 16:17:04.94,0.162,0.046,-0.953,33804139934.0,1.341,-30.122,-0.427
232,232,2016-01-09 16:17:04.98,0.146,0.025,-0.986,33847810663.0,3.72,-21.463,-0.549
233,233,2016-01-09 16:17:05.06,0.271,0.143,-1.073,33858876236.0,5.305,-18.354,-4.024
234,234,2016-01-09 16:17:05.10,0.163,0.086,-1.001,33895368736.0,1.768,-27.378,9.573
235,235,2016-01-09 16:17:05.14,0.091,0.061,-1.051,33906872226.0,-5.915,-54.146,2.073
236,236,2016-01-09 16:17:05.18,0.076,0.023,-0.944,33945274622.0,-17.012,-37.927,-9.329
237,237,2016-01-09 16:17:05.22,0.094,0.025,-0.95,33957124570.0,-18.049,-47.439,-9.817
238,238,2016-01-09 16:17:05.26,-0.0,0.041,-0.995,33992921966.0,-21.829,-59.451,-9.329
239,239,2016-01-09 16:17:05.29,-0.047,0.08,-1.005,34004368424.0,-13.476,-40.732,-18.537
240,240,2016-01-09 16:17:05.33,0.002,0.039,-1.011,34042837748.0,-14.207,-39.207,-16.402
241,241,2016-01-09 16:17:05.37,-0.077,0.098,-0.994,,,,
242,242,2016-01-09 16:17:05.41,-0.118,0.057,-0.957,34089176341.0,-19.817,-35.244,-17.073
243,243,2016-01-09 16:17:05.46,-0.163,0.121,-0.956,34102257592.0,-16.707,-36.159,-17.988
244,244,2016-01-09 16:17:05.49,-0.212,0.093,-0.946,34138630507.0,-16.159,-38.354,-20.488
245,245,2016-01-09 16:17:05.53,-0.187,0.104,-1.049,34151636914.0,-18.78,-40.915,-19.207
246,246,2016-01-09 16:17:05.57,-0.287,0.137,-1.083,34274208424.0,-15.549,-43.171,-18.11
247,247,2016-01-09 16:17:05.61,-0.411,0.115,-0.926,34299006236.0,-14.634,-29.024,-22.866
248,248,2016-01-09 16:17:05.65,-0.354,0.162,-0.978,34325762538.0,-13.476,-16.89,-22.073
249,249,2016-01-09 16:17:05.69,-0.344,0.23,-1.038,34333763684.0,-11.159,-20.61,-11.89
250,250,2016-01-09 16:17:05.73,-0.352,0.196,-0.985,34368494621.0,-4.024,-15.305,-11.28
251,251,2016-01-09 16:17:05.77,-0.403,0.219,-0.965,34372948476.0,-5.183,-14.817,-12.012
252,252,2016-01-09 16:17:05.81,-0.328,0.208,-0.956,34417250143.0,-5.915,-9.39,-9.451
253,253,2016-01-09 16:17:05.85,-0.295,0.24,-0.956,34421694050.0,-7.866,-12.073,0.244
254,254,2016-01-09 16:17:05.89,-0.303,0.208,-0.964,34465964570.0,-5.732,-17.805,1.707
255,255,2016-01-09 16:17:05.93,-0.241,0.177,-0.902,34470045976.0,-3.232,-11.829,0.488
256,256,2016-01-09 16:17:05.97,-0.349,0.201,-0.926,34514788320.0,-1.159,-11.646,0.183
257,257,2016-01-09 16:17:06.01,-0.354,0.196,-1.069,34518974205.0,8.78,-9.39,4.39
258,258,2016-01-09 16:17:06.05,-0.316,0.139,-1.072,34565437383.0,19.329,-15.061,8.11
259,259,2016-01-09 16:17:06.09,-0.368,0.153,-1.029,34581027644.0,12.988,-14.329,12.439
260,260,2016-01-09 16:17:06.13,-0.383,0.135,-1.018,34618115976.0,8.476,-5.732,11.89
261,261,2016-01-09 16:17:06.17,-0.307,0.08,-1.033,34628110560.0,7.134,0.854,11.951
262,262,2016-01-09 16:17:06.21,-0.345,0.014,-0.969,34662554778.0,4.634,-9.634,19.146
263,263,2016-01-09 16:17:06.25,-0.327,0.176,-0.901,34675998788.0,-2.256,-12.927,18.963
264,264,2016-01-09 16:17:06.29,-0.367,0.163,-0.892,34711204725.0,-3.659,-2.378,13.841
265,265,2016-01-09 16:17:06.33,-0.434,0.076,-0.906,34729348319.0,-4.451,2.012,14.085
266,266,2016-01-09 16:17:06.37,-0.383,0.083,-0.891,34773479309.0,0.122,0.183,10.183
267,267,2016-01-09 16:17:06.41,-0.279,0.215,-0.948,34823258215.0,2.5,-2.073,2.744
268,268,2016-01-09 16:17:06.45,-0.356,0.155,-0.999,34831215402.0,3.415,-5.671,-5.305
269,269,2016-01-09 16:17:06.49,-0.41,0.089,-0.973,34833642434.0,5.427,-4.024,-0.549
270,270,2016-01-09 16:17:06.57,-0.411,0.176,-0.992,34858915819.0,7.805,-2.5,1.22
271,271,2016-01-09 16:17:06.61,-0.416,0.189,-1.01,34861443423.0,8.78,2.378,1.524
272,272,2016-01-09 16:17:06.65,-0.349,0.181,-0.972,34907822278.0,0.732,-0.061,1.768
273,273,2016-01-09 16:17:06.69,-0.359,0.192,-0.938,34910310612.0,-1.768,-3.78,-2.378
274,274,2016-01-09 16:17:06.73,-0.363,0.174,-0.921,34956232798.0,-3.476,-0.976,-5.732
275,275,2016-01-09 16:17:06.77,-0.39,0.155,-0.914,34958731548.0,-2.134,-2.683,-8.415
276,276,2016-01-09 16:17:06.81,-0.429,0.154,-0.937,35004912121.0,-2.378,-2.744,-8.232
277,277,2016-01-09 16:17:06.85,-0.424,0.141,-0.967,35007503267.0,0.427,-2.866,-11.159
278,278,2016-01-09 16:17:06.89,-0.44,0.104,-0.945,35166271288.0,2.317,-7.073,-15.427
279,279,2016-01-09 16:17:06.93,-0.407,0.101,-0.961,35179243319.0,4.024,-5.366,-17.378
280,280,2016-01-09 16:17:06.97,-0.396,0.094,-0.947,35216571027.0,7.256,-8.415,-17.683
281,281,2016-01-09 16:17:07.01,-0.449,0.056,-0.92,35231827121.0,9.329,-6.585,-18.476
282,282,2016-01-09 16:17:07.04,-0.417,0.096,-0.981,35255755454.0,7.927,-0.305,-22.012
283,283,2016-01-09 16:17:07.09,-0.393,0.074,-0.972,35258244725.0,9.268,-5.122,-23.476
284,284,2016-01-09 16:17:07.12,-0.37,0.059,-0.965,35297467121.0,9.085,-6.098,-19.573
285,285,2016-01-09 16:17:07.16,-0.358,0.055,-0.973,35299987381.0,7.805,-7.317,-19.451
286,286,2016-01-09 16:17:07.20,-0.399,0.047,-0.973,35346473944.0,7.195,-4.512,-17.866
287,287,2016-01-09 16:17:07.24,-0.407,0.037,-0.98,35349028892.0,9.573,-0.122,-14.268
288,288,2016-01-09 16:17:07.28,-0.424,0.014,-1.007,35394957746.0,11.402,-3.476,-14.695
289,289,2016-01-09 16:17:07.32,-0.438,-0.011,-1.002,35397478163.0,11.098,-7.5,-13.171
290,290,2016-01-09 16:17:07.36,-0.452,-0.027,-0.975,35443677799.0,13.537,-9.939,-11.22
291,291,2016-01-09 16:17:07.40,-0.433,-0.033,-0.948,35446568320.0,12.683,-13.598,-8.78
292,292,2016-01-09 16:17:07.44,-0.436,-0.047,-0.928,35498758060.0,13.841,-11.463,-6.159
293,293,2016-01-09 16:17:07.48,-0.458,-0.06,-0.904,35507691653.0,15.732,-12.378,-4.085
294,294,2016-01-09 16:17:07.52,-0.458,-0.057,-0.908,35553746028.0,16.037,-11.463,-3.476
295,295,2016-01-09 16:17:07.56,-0.457,-0.066,-0.915,35565112590.0,16.768,-13.902,-2.195
296,296,2016-01-09 16:17:07.60,-0.5,-0.054,-0.923,35601781965.0,16.341,-13.171,-0.244
297,297,2016-01-09 16:17:07.64,-0.502,-0.078,-0.918,35612456808.0,14.878,-8.598,1.037
298,298,2016-01-09 16:17:07.68,-0.49,-0.084,-0.929,35654499673.0,11.22,-5.305,2.317
299,299,2016-01-09 16:17:07.72,-0.503,-0.083,-0.908,35689648163.0,7.378,-5.671,5.427
300,300,2016-01-09 16:17:07.76,-0.502,-0.076,-0.917,35703037798.0,6.037,-3.963,5.793
301,301,2016-01-09 16:17:07.80,-0.505,-0.073,-0.923,35752567695.0,5.061,-2.256,7.256
302,302,2016-01-09 16:17:07.84,-0.517,-0.075,-0.922,35767971705.0,4.146,-0.122,7.256
303,303,2016-01-09 16:17:07.88,-0.508,-0.072,-0.916,35814581445.0,2.439,0.915,6.707
304,304,2016-01-09 16:17:07.92,-0.498,-0.077,-0.904,35847703007.0,2.195,0.671,6.22
305,305,2016-01-09 16:17:07.96,-0.486,-0.083,-0.899,35856818632.0,0.488,-0.671,7.012
306,306,2016-01-09 16:17:08.00,-0.504,-0.074,-0.914,35859423111.0,-0.305,0.488,7.439
307,307,2016-01-09 16:17:08.08,-0.493,-0.084,-0.913,35882617850.0,-0.671,2.378,8.963
308,308,2016-01-09 16:17:08.12,-0.483,-0.087,-0.911,35885122694.0,-1.159,4.512,11.22
309,309,2016-01-09 16:17:08.16,-0.471,-0.073,-0.918,35932798946.0,0.244,6.159,12.561
310,310,2016-01-09 16:17:08.20,-0.479,-0.081,-0.925,36028823733.0,1.098,6.524,14.207
311,311,2016-01-09 16:17:08.24,-0.471,-0.071,-0.933,36031738370.0,-0.549,9.634,15.244
312,312,2016-01-09 16:17:08.32,-0.424,-0.049,-0.933,36077479259.0,-0.488,10.976,17.073
313,313,2016-01-09 16:17:08.36,-0.405,-0.041,-0.919,36079976498.0,-1.829,12.073,19.939
314,314,2016-01-09 16:17:08.40,-0.417,-0.041,-0.917,36154112174.0,-3.232,14.939,24.146
315,315,2016-01-09 16:17:08.44,-0.446,-0.025,-0.927,36184700976.0,-4.878,19.756,24.939
316,316,2016-01-09 16:17:08.48,-0.44,-0.011,-0.964,36187387121.0,-6.402,24.573,23.11
317,317,2016-01-09 16:17:08.52,-0.423,0.008,-0.97,36189854934.0,-9.146,23.72,21.463
318,318,2016-01-09 16:17:08.56,-0.428,0.027,-0.964,36223750610.0,-11.037,23.78,20.122
319,319,2016-01-09 16:17:08.60,-0.395,0.024,-0.982,36226269829.0,-12.439,22.5,18.415
320,320,2016-01-09 16:17:08.64,-0.363,0.03,-0.998,36272718737.0,-12.195,18.72,16.829
321,321,2016-01-09 16:17:08.68,-0.339,0.045,-0.986,36275259518.0,-13.171,17.5,16.646
322,322,2016-01-09 16:17:08.71,-0.32,0.042,-0.963,36321605611.0,-14.817,17.5,17.988
323,323,2016-01-09 16:17:08.76,-0.314,0.04,-0.965,36324223840.0,-14.451,11.28,22.134
324,324,2016-01-09 16:17:08.80,-0.353,0.042,-0.973,36369992902.0,-11.89,9.451,26.951
325,325,2016-01-09 16:17:08.83,-0.348,0.09,-0.99,36372853110.0,-7.744,9.268,28.476
326,326,2016-01-09 16:17:08.88,-0.336,0.07,-1.02,36418673787.0,-7.195,4.512,25.976
327,327,2016-01-09 16:17:08.92,-0.317,0.056,-1.0,36425248944.0,-8.841,0.732,26.402
328,328,2016-01-09 16:17:08.95,-0.342,0.123,-1.041,36479717694.0,-7.134,4.817,28.476
329,329,2016-01-09 16:17:08.99,-0.352,0.111,-0.954,36495029986.0,-4.878,-6.646,17.256
330,330,2016-01-09 16:17:09.04,-0.325,0.127,-0.977,36532300924.0,-5.488,-8.72,12.805
331,331,2016-01-09 16:17:09.07,-0.371,0.161,-0.961,36573063424.0,-5.549,-14.878,17.073
332,332,2016-01-09 16:17:09.11,-0.314,0.176,-0.928,36588898111.0,-6.037,-0.976,19.207
333,333,2016-01-09 16:17:09.15,-0.358,0.162,-0.971,36619228423.0,-6.402,-7.805,29.207
334,334,2016-01-09 16:17:09.19,-0.421,0.208,-0.98,36627137746.0,-11.037,0.793,23.659
335,335,2016-01-09 16:17:09.23,-0.33,0.196,-0.954,36659724568.0,-12.439,11.829,19.634
336,336,2016-01-09 16:17:09.27,-0.311,0.18,-0.964,36663860871.0,-18.72,3.049,24.939
337,337,2016-01-09 16:17:09.31,-0.343,0.203,-0.947,36708515870.0,-20.488,9.756,18.659
338,338,2016-01-09 16:17:09.35,-0.28,0.211,-0.948,36714896651.0,-17.866,14.329,16.463
339,339,2016-01-09 16:17:09.39,-0.24,0.245,-0.961,36757236443.0,-18.354,13.963,20.549
340,340,2016-01-09 16:17:09.43,-0.217,0.259,-0.988,36761828110.0,-13.78,23.415,18.963
341,341,2016-01-09 16:17:09.47,-0.229,0.266,-1.006,36955414047.0,-10.427,26.707,14.573
342,342,2016-01-09 16:17:09.51,-0.209,0.283,-1.019,36989054828.0,-11.463,27.134,13.659
343,343,2016-01-09 16:17:09.55,-0.168,0.286,-0.981,37015030714.0,-8.963,26.524,17.012
344,344,2016-01-09 16:17:09.59,-0.142,0.289,-0.95,37024852380.0,-5.671,21.22,21.159
345,345,2016-01-09 16:17:09.63,-0.148,0.282,-0.925,37049704776.0,-4.207,20.122,21.341
346,346,2016-01-09 16:17:09.67,-0.147,0.323,-0.983,37053796339.0,-1.646,26.037,21.768
347,347,2016-01-09 16:17:09.71,-0.137,0.294,-0.997,37098460037.0,0.366,28.476,17.561
348,348,2016-01-09 16:17:09.75,-0.119,0.24,-1.024,37102691756.0,0.305,31.585,4.512
349,349,2016-01-09 16:17:09.79,-0.054,0.291,-1.056,37147196547.0,-5.427,31.159,-1.22
350,350,2016-01-09 16:17:09.83,0.001,0.25,-1.023,37151313422.0,-9.451,22.195,-1.951
351,351,2016-01-09 16:17:09.87,-0.058,0.213,-0.97,37195961078.0,-6.524,13.415,-4.207
352,352,2016-01-09 16:17:09.91,-0.107,0.255,-0.964,37200151495.0,-6.89,11.524,-1.341
353,353,2016-01-09 16:17:09.95,-0.117,0.253,-0.922,37244688944.0,-7.317,4.878,0.793
354,354,2016-01-09 16:17:09.99,-0.087,0.276,-0.933,37248742850.0,-6.89,4.085,0.305
355,355,2016-01-09 16:17:10.03,-0.043,0.321,-0.976,37294953892.0,-3.841,4.39,-1.037
356,356,2016-01-09 16:17:10.07,-0.098,0.312,-0.989,37316020714.0,0.183,4.878,-0.61
357,357,2016-01-09 16:17:10.11,-0.085,0.301,-0.979,37345347850.0,0.915,7.5,-1.28
358,358,2016-01-09 16:17:10.15,-0.03,0.33,-1.0,37374878371.0,0.427,7.744,-4.146
359,359,2016-01-09 16:17:10.19,-0.051,0.305,-0.993,37394051600.0,1.707,3.232,-5.427
360,360,2016-01-09 16:17:10.23,-0.037,0.298,-0.972,37407348683.0,1.768,5.488,-4.817
361,361,2016-01-09 16:17:10.27,-0.061,0.289,-0.962,37439692069.0,0.854,6.402,-6.524
362,362,2016-01-09 16:17:10.31,-0.062,0.288,-0.925,37443715038.0,1.098,9.451,-3.72
363,363,2016-01-09 16:17:10.35,-0.09,0.308,-0.927,37488453059.0,2.378,5.061,-4.207
364,364,2016-01-09 16:17:10.39,-0.074,0.306,-0.951,37492865715.0,4.939,4.085,-10.61
365,365,2016-01-09 16:17:10.47,0.004,0.252,-1.026,37539903058.0,7.012,5.427,-13.902
366,366,2016-01-09 16:17:10.51,-0.004,0.317,-1.06,37542853267.0,5.976,2.378,-8.293
367,367,2016-01-09 16:17:10.55,-0.026,0.312,-1.057,37588919777.0,7.073,5.488,-7.744
368,368,2016-01-09 16:17:10.59,0.003,0.312,-1.016,37592483475.0,6.463,8.11,0.122
369,369,2016-01-09 16:17:10.63,0.013,0.263,-1.0,37645389777.0,1.098,0.915,1.585
370,370,2016-01-09 16:17:10.67,0.027,0.237,-0.959,37655928371.0,-6.524,4.451,5.244
371,371,2016-01-09 16:17:10.70,-0.062,0.232,-0.967,37697749673.0,-3.963,10.976,3.415
372,372,2016-01-09 16:17:10.74,0.005,0.229,-0.967,37709186964.0,-0.732,8.049,4.756
373,373,2016-01-09 16:17:10.78,0.149,0.214,-1.011,37840157746.0,-5.854,8.293,4.451
374,374,2016-01-09 16:17:10.82,0.101,0.21,-1.042,37859211756.0,-4.024,1.22,11.341
375,375,2016-01-09 16:17:10.86,0.062,0.184,-1.015,37882353320.0,-1.341,13.598,14.878
376,376,2016-01-09 16:17:10.90,0.133,0.2,-1.002,37889342381.0,2.866,21.646,10.488
377,377,2016-01-09 16:17:10.94,0.22,0.249,-1.015,37927185870.0,7.805,33.537,7.378
378,378,2016-01-09 16:17:10.98,0.202,0.228,-1.01,37931541652.0,11.585,41.341,7.622
379,379,2016-01-09 16:17:11.02,0.16,0.184,-0.964,37975940246.0,17.927,53.841,15.061
380,380,2016-01-09 16:17:11.06,0.208,0.185,-0.945,37980057797.0,23.293,55.366,17.866
381,381,2016-01-09 16:17:11.10,0.26,0.194,-0.954,38024660297.0,25.427,55.061,18.659
382,382,2016-01-09 16:17:11.14,0.351,0.186,-0.94,38028772432.0,26.768,58.415,20.183
383,383,2016-01-09 16:17:11.18,0.426,0.117,-0.904,38073447589.0,29.207,63.11,20.793
384,384,2016-01-09 16:17:11.22,0.433,0.122,-0.873,38077660818.0,27.195,67.683,24.573
385,385,2016-01-09 16:17:11.26,0.444,0.145,-0.832,38123612068.0,25.305,72.378,30.854
386,386,2016-01-09 16:17:11.30,0.456,0.141,-0.815,38142541912.0,25.061,76.829,27.988
387,387,2016-01-09 16:17:11.34,0.414,0.034,-0.752,38185683474.0,20.976,75.061,24.024
388,388,2016-01-09 16:17:11.38,0.422,0.012,-0.714,38191977172.0,12.683,61.159,18.963
389,389,2016-01-09 16:17:11.42,0.467,-0.023,-0.707,38219772953.0,11.707,41.585,20.732
390,390,2016-01-09 16:17:11.46,0.49,-0.029,-0.762,38223986026.0,15.061,26.28,25.427
391,391,2016-01-09 16:17:11.50,0.505,-0.08,-0.806,38268444151.0,18.415,16.646,25.305
392,392,2016-01-09 16:17:11.54,0.558,-0.119,-0.785,38272597068.0,17.805,6.037,26.037
393,393,2016-01-09 16:17:11.58,0.547,-0.067,-0.815,38317219151.0,19.817,5.0,26.098
394,394,2016-01-09 16:17:11.62,0.573,-0.113,-0.812,38321697433.0,24.024,1.585,15.976
395,395,2016-01-09 16:17:11.66,0.515,-0.142,-0.783,38365937276.0,13.963,-2.195,9.878
396,396,2016-01-09 16:17:11.70,0.477,-0.136,-0.768,38370039307.0,5.244,-3.11,11.463
397,397,2016-01-09 16:17:11.74,0.495,-0.137,-0.765,38414712745.0,3.171,-11.768,12.134
398,398,2016-01-09 16:17:11.78,0.516,-0.125,-0.802,38418862381.0,0.244,-16.28,9.939
399,399,2016-01-09 16:17:11.82,0.484,-0.114,-0.826,38471510714.0,-3.415,-18.171,8.841
400,400,2016-01-09 16:17:11.86,0.434,-0.107,-0.839,38478065713.0,-6.159,-16.646,10.488
401,401,2016-01-09 16:17:11.90,0.449,-0.129,-0.833,38519377536.0,-10.854,-13.354,10.366
402,402,2016-01-09 16:17:11.94,0.453,-0.151,-0.847,38532304255.0,-12.012,-14.573,11.341
403,403,2016-01-09 16:17:11.98,0.448,-0.129,-0.861,38576605922.0,-11.89,-11.707,10.61
404,404,2016-01-09 16:17:12.02,0.414,-0.122,-0.856,38588366547.0,-11.524,-7.927,10.61
405,405,2016-01-09 16:17:12.06,0.432,-0.106,-0.859,38726632277.0,-12.927,-6.829,9.573
406,406,2016-01-09 16:17:12.10,0.427,-0.09,-0.883,38741476548.0,-11.28,-7.134,8.78
407,407,2016-01-09 16:17:12.14,0.448,-0.103,-0.89,38777093631.0,-12.134,-10.61,7.927
408,408,2016-01-09 16:17:12.18,0.43,-0.137,-0.859,38792418996.0,-15.549,-10.366,4.146
409,409,2016-01-09 16:17:12.22,0.419,-0.111,-0.857,38815800246.0,-15.671,-9.878,5.793
410,410,2016-01-09 16:17:12.26,0.487,-0.109,-0.894,38818300297.0,-11.951,-6.951,7.317
411,411,2016-01-09 16:17:12.29,0.464,-0.129,-0.873,38856313318.0,-8.659,-3.11,11.22
412,412,2016-01-09 16:17:12.34,0.444,-0.118,-0.816,38858911131.0,-6.402,9.207,14.756
413,413,2016-01-09 16:17:12.38,0.543,-0.092,-0.84,38905044464.0,4.451,18.659,12.561
414,414,2016-01-09 16:17:12.42,0.636,-0.112,-0.849,38907605870.0,6.585,20.366,11.646
415,415,2016-01-09 16:17:12.46,0.637,-0.109,-0.857,38953824046.0,-7.378,21.646,13.537
416,416,2016-01-09 16:17:12.49,0.413,-0.091,-0.773,38956407223.0,-18.841,38.72,14.878
417,417,2016-01-09 16:17:12.53,0.387,-0.043,-0.757,39002713476.0,-17.561,54.024,25.549
418,418,2016-01-09 16:17:12.57,0.474,-0.135,-0.7,39005305976.0,-24.451,55.793,21.829
419,419,2016-01-09 16:17:12.61,0.562,-0.106,-0.708,39055115610.0,-27.5,44.939,16.524
420,420,2016-01-09 16:17:12.65,0.55,-0.033,-0.723,39063855298.0,-20.793,38.354,9.512
421,421,2016-01-09 16:17:12.69,0.632,-0.069,-0.74,39110969776.0,-15.488,28.841,3.598
422,422,2016-01-09 16:17:12.73,0.655,-0.094,-0.736,39122119099.0,-18.354,18.293,3.841
423,423,2016-01-09 16:17:12.77,0.612,-0.03,-0.732,39159436807.0,-20.671,13.537,3.841
424,424,2016-01-09 16:17:12.81,0.595,-0.069,-0.725,39162174672.0,-22.988,9.695,8.841
425,425,2016-01-09 16:17:12.85,0.641,-0.085,-0.702,39197490349.0,-19.207,9.573,8.72
426,426,2016-01-09 16:17:12.89,0.661,-0.007,-0.731,39200078422.0,-16.28,6.037,3.293
427,427,2016-01-09 16:17:12.93,0.662,-0.016,-0.759,39246199151.0,-11.098,4.939,-0.549
428,428,2016-01-09 16:17:12.97,0.64,-0.052,-0.766,39248763995.0,-9.573,9.085,1.707
429,429,2016-01-09 16:17:13.05,0.593,-0.053,-0.698,39294995662.0,-12.012,13.537,0.854
430,430,2016-01-09 16:17:13.09,0.606,-0.043,-0.692,39297538161.0,-15.061,14.207,-1.28
431,431,2016-01-09 16:17:13.13,0.553,-0.027,-0.695,39344503682.0,-13.049,4.085,-1.098
432,432,2016-01-09 16:17:13.17,0.625,-0.084,-0.729,39392113266.0,-9.939,5.915,-0.671
433,433,2016-01-09 16:17:13.21,0.548,-0.082,-0.75,39404781027.0,-9.573,1.89,-6.402
434,434,2016-01-09 16:17:13.25,0.58,-0.075,-0.74,39446562745.0,-3.537,-0.61,-6.402
435,435,2016-01-09 16:17:13.29,0.613,-0.006,-0.676,39472020194.0,-1.28,-9.573,-5.793
436,436,2016-01-09 16:17:13.33,0.613,-0.005,-0.731,39507524047.0,3.476,-16.585,-17.866
437,437,2016-01-09 16:17:13.37,0.542,0.022,-0.778,39587731756.0,2.866,-29.207,-25.122
438,438,2016-01-09 16:17:13.41,0.623,0.056,-0.829,39590263579.0,15.61,-28.598,-8.963
439,439,2016-01-09 16:17:13.45,0.574,-0.036,-0.783,39636226077.0,12.012,-24.695,-12.317
440,440,2016-01-09 16:17:13.49,0.58,-0.006,-0.759,39638712900.0,3.293,-14.451,-21.28
441,441,2016-01-09 16:17:13.53,0.595,0.021,-0.732,39685183942.0,8.537,-25.183,-21.159
442,442,2016-01-09 16:17:13.57,0.562,-0.003,-0.771,39687637119.0,19.024,-20.732,-18.659
443,443,2016-01-09 16:17:13.61,0.503,-0.008,-0.805,39732954827.0,25.122,-19.329,-20.976
444,444,2016-01-09 16:17:13.65,0.519,-0.005,-0.831,39789241443.0,21.646,-12.561,-25.305
445,445,2016-01-09 16:17:13.69,0.53,-0.035,-0.805,39797707954.0,14.756,-19.085,-27.622
446,446,2016-01-09 16:17:13.73,0.566,0.001,-0.816,39842406651.0,9.756,-24.268,-27.134
447,447,2016-01-09 16:17:13.77,0.415,0.019,-0.814,39855823265.0,7.5,-24.146,-23.963
448,448,2016-01-09 16:17:13.81,0.472,0.032,-0.826,39893332952.0,7.317,-20.793,-20.793
449,449,2016-01-09 16:17:13.85,0.565,0.079,-0.836,39904388525.0,5.366,-28.476,-15.488
450,450,2016-01-09 16:17:13.89,0.391,0.01,-0.827,39940443213.0,8.049,-28.476,-4.451
451,451,2016-01-09 16:17:13.93,0.394,-0.007,-0.907,39951807484.0,13.354,-21.89,-9.573
452,452,2016-01-09 16:17:13.97,0.496,0.107,-0.915,39988618265.0,-8.476,-32.683,-9.39
453,453,2016-01-09 16:17:14.01,0.461,0.037,-0.902,40000087536.0,-16.585,-31.098,-7.805
454,454,2016-01-09 16:17:14.05,0.402,0.044,-0.882,40074284202.0,-15.915,-23.171,-11.646
455,455,2016-01-09 16:17:14.09,0.354,0.049,-0.86,40099329515.0,-18.171,-21.951,-8.902
456,456,2016-01-09 16:17:14.12,0.364,0.05,-0.895,40124081546.0,-19.512,-18.354,-7.378
457,457,2016-01-09 16:17:14.17,0.347,0.021,-0.892,40148014254.0,-16.524,-21.585,-2.378
458,458,2016-01-09 16:17:14.20,0.384,0.091,-0.943,,,,
459,459,2016-01-09 16:17:14.24,0.363,0.057,-0.949,40198813629.0,-8.78,-17.012,8.659
460,460,2016-01-09 16:17:14.28,0.389,0.074,-0.95,40221621546.0,-10.061,-5.0,13.659
461,461,2016-01-09 16:17:14.32,0.323,0.101,-0.941,40235368317.0,-6.341,2.927,21.098
462,462,2016-01-09 16:17:14.36,0.291,0.097,-0.875,40267164827.0,1.524,7.5,26.341
463,463,2016-01-09 16:17:14.40,0.317,0.077,-0.872,40271362796.0,-7.439,10.244,22.866
464,464,2016-01-09 16:17:14.44,0.317,0.064,-0.88,40317430141.0,-15.854,-4.573,10.854
465,465,2016-01-09 16:17:14.48,0.278,0.068,-0.871,40320838630.0,-12.317,-5.061,5.122
466,466,2016-01-09 16:17:14.56,0.35,0.084,-0.94,40367434879.0,-9.634,1.646,-0.671
467,467,2016-01-09 16:17:14.60,0.402,0.061,-1.003,40369995713.0,-10.671,-7.317,-2.561
468,468,2016-01-09 16:17:14.64,0.364,0.059,-0.976,40511075504.0,-11.098,-6.341,-0.549
469,469,2016-01-09 16:17:14.68,0.345,0.039,-0.958,40515319046.0,-3.11,0.854,0.915
470,470,2016-01-09 16:17:14.72,0.351,0.044,-0.909,40559906546.0,0.427,2.866,1.402
471,471,2016-01-09 16:17:14.76,0.378,0.092,-0.911,40564158994.0,-1.28,8.72,6.463
472,472,2016-01-09 16:17:14.80,0.355,0.107,-0.911,40608697379.0,-1.646,13.537,11.28
473,473,2016-01-09 16:17:14.84,0.431,0.08,-0.99,40614841702.0,-5.488,20.366,7.378
474,474,2016-01-09 16:17:14.88,0.426,0.052,-0.921,40657178838.0,-5.488,23.293,0.0
475,475,2016-01-09 16:17:14.92,0.41,0.051,-0.855,40661828786.0,-0.488,29.085,-1.524
476,476,2016-01-09 16:17:14.96,0.417,0.116,-0.82,40705980817.0,2.073,30.0,-3.537
477,477,2016-01-09 16:17:15.00,0.455,0.152,-0.889,40711183369.0,8.963,32.805,-7.622
478,478,2016-01-09 16:17:15.04,0.438,0.122,-0.845,40754815556.0,7.561,26.768,-8.598
479,479,2016-01-09 16:17:15.08,0.479,0.151,-0.793,40759620244.0,3.476,32.744,-6.585
480,480,2016-01-09 16:17:15.12,0.512,0.156,-0.828,40805550504.0,1.159,25.732,-1.463
481,481,2016-01-09 16:17:15.16,0.511,0.072,-0.793,40823926494.0,-1.341,25.854,-1.402
482,482,2016-01-09 16:17:15.20,0.552,0.065,-0.755,40865863369.0,-2.5,28.78,-0.183
483,483,2016-01-09 16:17:15.24,0.625,0.047,-0.744,40895263369.0,6.341,26.159,1.707
484,484,2016-01-09 16:17:15.28,0.653,0.027,-0.734,40901166286.0,16.585,34.512,2.195
485,485,2016-01-09 16:17:15.32,0.667,0.033,-0.717,40905372431.0,25.0,45.061,0.488
486,486,2016-01-09 16:17:15.36,0.681,0.05,-0.671,40949754099.0,34.146,50.427,-3.11
487,487,2016-01-09 16:17:15.40,0.651,-0.001,-0.658,40954022380.0,40.244,45.549,-3.537
488,488,2016-01-09 16:17:15.44,0.634,-0.031,-0.638,40998503994.0,40.61,43.537,-1.037
489,489,2016-01-09 16:17:15.48,0.659,-0.066,-0.642,41002777432.0,43.476,43.171,-1.646
490,490,2016-01-09 16:17:15.52,0.617,-0.084,-0.611,41047143421.0,45.0,37.5,-0.488
491,491,2016-01-09 16:17:15.56,0.633,-0.093,-0.62,41051487692.0,45.427,24.207,4.39
492,492,2016-01-09 16:17:15.60,0.635,-0.131,-0.638,41097472067.0,45.488,16.89,5.305
493,493,2016-01-09 16:17:15.64,0.654,-0.176,-0.622,41111166078.0,44.451,12.256,3.232
494,494,2016-01-09 16:17:15.68,0.628,-0.151,-0.611,41149341338.0,45.61,5.427,5.549
495,495,2016-01-09 16:17:15.72,0.634,-0.144,-0.615,41159048213.0,48.354,4.146,6.646
496,496,2016-01-09 16:17:15.76,0.658,-0.218,-0.606,41194908005.0,45.183,-6.585,5.854
497,497,2016-01-09 16:17:15.80,0.637,-0.197,-0.623,41245216338.0,39.207,-12.378,6.098
498,498,2016-01-09 16:17:15.84,0.667,-0.232,-0.619,41271681078.0,38.415,-12.622,6.159
499,499,2016-01-09 16:17:15.88,0.707,-0.238,-0.645,41296459203.0,37.073,-20.732,12.622
500,500,2016-01-09 16:17:15.92,0.629,-0.313,-0.667,41388422120.0,35.122,-19.512,10.244
501,501,2016-01-09 16:17:15.95,0.661,-0.291,-0.668,41392960714.0,33.049,-14.329,9.939
502,502,2016-01-09 16:17:15.99,0.621,-0.204,-0.695,41437157848.0,29.573,-15.671,9.268
503,503,2016-01-09 16:17:16.07,0.644,-0.312,-0.592,41441599360.0,24.817,-17.622,7.256
504,504,2016-01-09 16:17:16.11,0.611,-0.289,-0.622,41485889722.0,9.939,-17.988,11.341
505,505,2016-01-09 16:17:16.15,0.587,-0.332,-0.664,41490633472.0,2.927,-6.463,13.171
506,506,2016-01-09 16:17:16.19,0.6,-0.411,-0.669,41536140349.0,1.646,-7.622,12.012
507,507,2016-01-09 16:17:16.23,0.63,-0.372,-0.656,41550182328.0,2.073,-7.866,10.915
508,508,2016-01-09 16:17:16.31,0.582,-0.391,-0.654,41584830035.0,7.683,-6.646,6.951
509,509,2016-01-09 16:17:16.35,0.568,-0.399,-0.635,41603589619.0,10.183,-9.268,5.732
510,510,2016-01-09 16:17:16.39,0.532,-0.399,-0.613,41638364150.0,8.659,-3.049,6.463
511,511,2016-01-09 16:17:16.43,0.556,-0.394,-0.632,41653825192.0,7.256,-2.256,3.841
512,512,2016-01-09 16:17:16.47,0.583,-0.364,-0.651,41682981234.0,-2.744,-8.049,1.463
513,513,2016-01-09 16:17:16.51,0.549,-0.389,-0.638,41701973161.0,-7.622,-7.134,4.268
514,514,2016-01-09 16:17:16.55,0.519,-0.404,-0.635,41736256755.0,-14.695,-8.659,5.366
515,515,2016-01-09 16:17:16.59,0.546,-0.387,-0.671,41749245557.0,-21.098,-14.573,6.037
516,516,2016-01-09 16:17:16.63,0.557,-0.333,-0.702,41780588838.0,-23.537,-12.866,5.61
517,517,2016-01-09 16:17:16.67,0.515,-0.314,-0.696,41799497066.0,-27.256,-10.915,4.207
518,518,2016-01-09 16:17:16.71,0.527,-0.33,-0.73,41833898839.0,-29.207,-12.988,6.463
519,519,2016-01-09 16:17:16.75,0.535,-0.28,-0.719,41847778057.0,-38.902,-13.902,5.671
520,520,2016-01-09 16:17:16.79,0.496,-0.31,-0.745,41878138993.0,-40.427,-13.293,4.695
521,521,2016-01-09 16:17:16.83,0.489,-0.235,-0.763,41900029098.0,-46.768,-14.573,2.195
522,522,2016-01-09 16:17:16.87,0.448,-0.191,-0.805,41926921181.0,-47.378,-11.037,1.585
523,523,2016-01-09 16:17:16.91,0.448,-0.175,-0.839,41945246546.0,-45.854,-14.268,2.866
524,524,2016-01-09 16:17:16.95,0.463,-0.164,-0.863,41975613733.0,-51.646,-15.61,3.659
525,525,2016-01-09 16:17:16.99,0.443,-0.14,-0.877,41995093838.0,-51.89,-11.951,0.61
526,526,2016-01-09 16:17:17.03,0.418,-0.102,-0.882,42028590869.0,-48.354,-12.622,-3.11
527,527,2016-01-09 16:17:17.07,0.386,-0.055,-0.883,42042280661.0,-40.488,-12.622,-1.951
528,528,2016-01-09 16:17:17.11,0.405,-0.056,-0.884,42124572015.0,-35.671,-12.378,-5.061
529,529,2016-01-09 16:17:17.15,0.401,-0.018,-0.886,42175048526.0,-32.988,-11.402,-8.415
530,530,2016-01-09 16:17:17.19,0.373,-0.043,-0.887,42177631078.0,-28.171,-8.049,-10.366
531,531,2016-01-09 16:17:17.23,0.397,-0.05,-0.89,42180405245.0,-24.695,-11.037,-10.732
532,532,2016-01-09 16:17:17.27,0.435,-0.038,-0.917,42317496442.0,-22.256,-14.817,-8.841
533,533,2016-01-09 16:17:17.31,0.419,-0.015,-0.914,42320027484.0,-12.439,-16.098,-0.732
534,534,2016-01-09 16:17:17.35,0.402,-0.009,-0.886,42366338680.0,-8.476,-12.317,-0.488
535,535,2016-01-09 16:17:17.39,0.411,-0.026,-0.9,42368823888.0,-10.793,-6.768,0.854
536,536,2016-01-09 16:17:17.43,0.375,-0.022,-0.902,42430031181.0,-9.878,-1.768,-0.61
537,537,2016-01-09 16:17:17.47,0.367,-0.025,-0.911,42446805087.0,-7.439,2.073,-2.561
538,538,2016-01-09 16:17:17.51,0.373,-0.021,-0.928,42480174619.0,-1.159,0.366,-4.329
539,539,2016-01-09 16:17:17.59,0.367,-0.038,-0.925,42497249358.0,1.768,0.183,-8.293
540,540,2016-01-09 16:17:17.63,0.375,-0.064,-0.923,42524752588.0,7.134,0.183,-10.671
541,541,2016-01-09 16:17:17.67,0.38,-0.072,-0.913,42527002640.0,9.451,2.134,-12.683
542,542,2016-01-09 16:17:17.70,0.373,-0.085,-0.893,42561204359.0,17.073,2.866,-11.22
543,543,2016-01-09 16:17:17.74,0.399,-0.083,-0.892,42563798630.0,22.561,4.573,-11.89
544,544,2016-01-09 16:17:17.78,0.405,-0.13,-0.904,42610005140.0,26.28,4.695,-15.549
545,545,2016-01-09 16:17:17.82,0.408,-0.177,-0.901,42612884255.0,31.098,6.951,-17.5
546,546,2016-01-09 16:17:17.86,0.405,-0.142,-0.905,42658726754.0,38.232,6.646,-19.756
547,547,2016-01-09 16:17:17.90,0.414,-0.183,-0.884,42661616338.0,48.049,6.524,-23.049
548,548,2016-01-09 16:17:17.94,0.408,-0.219,-0.858,42707610660.0,52.439,4.756,-26.524
549,549,2016-01-09 16:17:17.98,0.457,-0.147,-0.868,42710108524.0,53.354,5.061,-25.0
550,550,2016-01-09 16:17:18.02,0.447,-0.212,-0.783,42756161285.0,60.0,7.439,-20.061
551,551,2016-01-09 16:17:18.06,0.465,-0.273,-0.746,42758710608.0,48.537,18.171,-18.049
552,552,2016-01-09 16:17:18.10,0.487,-0.256,-0.754,42815664097.0,35.488,24.329,-18.293
553,553,2016-01-09 16:17:18.14,0.519,-0.243,-0.767,42831351806.0,36.037,29.512,-17.744
554,554,2016-01-09 16:17:18.18,0.555,-0.258,-0.769,42870540191.0,31.646,25.122,-20.854
555,555,2016-01-09 16:17:18.22,0.563,-0.244,-0.752,42885369983.0,22.561,11.829,-25.366
556,556,2016-01-09 16:17:18.26,0.564,-0.216,-0.713,42917366076.0,17.378,5.122,-24.878
557,557,2016-01-09 16:17:18.30,0.473,-0.19,-0.737,42923646910.0,14.939,3.72,-21.159
558,558,2016-01-09 16:17:18.34,0.521,-0.176,-0.683,42955335244.0,4.329,7.866,-14.756
559,559,2016-01-09 16:17:18.38,0.591,-0.159,-0.69,42957966077.0,-5.671,0.976,-14.39
560,560,2016-01-09 16:17:18.42,0.526,-0.165,-0.729,43000570243.0,-15.854,-0.244,-16.037
561,561,2016-01-09 16:17:18.46,0.462,-0.214,-0.673,43003191389.0,-21.768,1.524,-7.439
562,562,2016-01-09 16:17:18.50,0.569,-0.146,-0.708,43048912587.0,-27.927,-4.695,0.061
563,563,2016-01-09 16:17:18.54,0.525,-0.115,-0.757,43051770348.0,-26.463,-2.439,-7.927
564,564,2016-01-09 16:17:18.58,0.512,-0.093,-0.775,43253515713.0,-16.585,0.244,-7.927
565,565,2016-01-09 16:17:18.62,0.536,-0.06,-0.778,43268902223.0,-13.11,-14.756,-4.634
566,566,2016-01-09 16:17:18.66,0.475,-0.013,-0.846,43357925660.0,-14.39,-8.659,-4.268
567,567,2016-01-09 16:17:18.70,0.452,-0.061,-0.801,43373305608.0,-8.902,-9.634,3.78
568,568,2016-01-09 16:17:18.74,0.539,-0.068,-0.827,43405397171.0,-12.927,-17.744,1.463
569,569,2016-01-09 16:17:18.78,0.459,-0.082,-0.85,43407678733.0,-21.646,-24.817,0.366
570,570,2016-01-09 16:17:18.82,0.443,-0.1,-0.87,43438784879.0,-18.476,-19.085,5.732
571,571,2016-01-09 16:17:18.86,0.528,-0.039,-0.919,43441378786.0,-15.0,-19.329,-0.732
572,572,2016-01-09 16:17:18.90,0.526,-0.044,-0.863,43487420191.0,-15.915,-8.537,-3.476
573,573,2016-01-09 16:17:18.94,0.505,-0.104,-0.75,43489964410.0,-16.768,-16.098,-6.829
574,574,2016-01-09 16:17:18.98,0.374,-0.058,-0.789,43536199722.0,-23.598,-12.805,-17.073
575,575,2016-01-09 16:17:19.02,0.319,-0.061,-0.825,43538779618.0,-18.537,-5.427,-14.085
576,576,2016-01-09 16:17:19.06,0.416,-0.06,-0.798,43585008160.0,-1.341,-19.756,-13.354
577,577,2016-01-09 16:17:19.10,0.397,0.003,-0.883,43587620191.0,4.817,-30.122,-20.854
578,578,2016-01-09 16:17:19.14,0.486,0.008,-0.981,43641941806.0,3.171,-39.146,-25.488
579,579,2016-01-09 16:17:19.18,0.414,-0.046,-0.974,43652058942.0,3.902,-48.293,-20.183
580,580,2016-01-09 16:17:19.22,0.305,-0.051,-0.965,43690065920.0,5.305,-49.878,-13.598
581,581,2016-01-09 16:17:19.26,0.242,0.001,-0.986,43698514670.0,-2.622,-35.183,-4.573
582,582,2016-01-09 16:17:19.30,0.236,-0.008,-0.89,43738729567.0,-7.683,-36.341,-8.598
583,583,2016-01-09 16:17:19.34,0.252,0.023,-0.936,43747201441.0,-10.305,-32.439,-22.012
584,584,2016-01-09 16:17:19.38,0.169,0.057,-0.955,43787351024.0,-8.11,-28.171,-19.817
585,585,2016-01-09 16:17:19.42,0.273,0.009,-0.931,43795778003.0,-7.805,-26.646,-13.476
586,586,2016-01-09 16:17:19.46,0.219,0.056,-0.999,43839065191.0,-20.61,-32.195,-10.732
587,587,2016-01-09 16:17:19.49,0.099,0.081,-1.008,,,,
588,588,2016-01-09 16:17:19.54,0.124,0.065,-0.969,43889178107.0,-7.561,-22.5,-0.915
589,589,2016-01-09 16:17:19.57,0.129,0.08,-1.012,43900479097.0,-7.378,-36.707,5.183
590,590,2016-01-09 16:17:19.61,0.114,0.082,-1.03,43949911284.0,-5.427,-34.39,10.122
591,591,2016-01-09 16:17:19.65,0.116,0.043,-1.021,,,,
592,592,2016-01-09 16:17:19.69,0.106,0.021,-1.061,43991349149.0,-7.683,-27.561,15.427
593,593,2016-01-09 16:17:19.73,0.072,0.04,-1.02,43993990555.0,-10.427,-22.622,12.927
594,594,2016-01-09 16:17:19.77,0.049,0.052,-0.981,44023715399.0,-8.598,-20.122,10.732
595,595,2016-01-09 16:17:19.81,0.03,0.052,-0.954,44167032899.0,-9.756,-18.841,10.244
596,596,2016-01-09 16:17:19.85,0.004,0.041,-0.985,44171630504.0,-9.512,-19.024,10.122
597,597,2016-01-09 16:17:19.89,0.02,0.029,-1.047,44230713628.0,-8.72,-17.683,4.39
598,598,2016-01-09 16:17:19.97,0.013,0.103,-1.039,44242184618.0,-12.195,-18.354,10.305
599,599,2016-01-09 16:17:20.01,-0.024,0.083,-1.0,44276712482.0,-15.366,-14.085,9.146
600,600,2016-01-09 16:17:20.05,-0.054,0.108,-1.006,44332211754.0,-11.463,0.854,2.622
601,601,2016-01-09 16:17:20.09,-0.045,0.13,-1.019,44347286181.0,-5.854,-0.244,2.073
602,602,2016-01-09 16:17:20.13,-0.043,0.105,-1.007,44381517692.0,-9.695,-2.988,2.805
603,603,2016-01-09 16:17:20.17,-0.038,0.121,-1.023,44397080712.0,-7.744,-3.415,-0.427
604,604,2016-01-09 16:17:20.21,-0.044,0.123,-1.023,44426289254.0,-4.878,-3.293,-4.939
605,605,2016-01-09 16:17:20.25,-0.032,0.133,-1.028,44428759722.0,-5.976,-2.866,-7.744
606,606,2016-01-09 16:17:20.29,-0.028,0.129,-1.02,44462570504.0,-3.78,-3.902,-5.183
607,607,2016-01-09 16:17:20.33,-0.035,0.136,-1.031,44465596285.0,1.463,-3.354,-3.72
608,608,2016-01-09 16:17:20.37,-0.035,0.121,-1.024,44511552952.0,2.439,0.061,-5.915
609,609,2016-01-09 16:17:20.41,-0.04,0.103,-1.012,44514066702.0,4.329,3.72,-8.902
610,610,2016-01-09 16:17:20.45,-0.021,0.094,-1.007,44559956285.0,4.756,4.085,-12.439
611,611,2016-01-09 16:17:20.49,-0.031,0.074,-1.013,44562575817.0,5.061,0.183,-14.146
612,612,2016-01-09 16:17:20.53,-0.009,0.082,-1.025,44609148993.0,5.915,-1.28,-13.11
613,613,2016-01-09 16:17:20.57,-0.02,0.065,-1.017,44611796077.0,6.951,-0.183,-11.646
614,614,2016-01-09 16:17:20.61,-0.016,0.074,-1.016,44663425764.0,8.841,2.5,-10.61
615,615,2016-01-09 16:17:20.65,-0.017,0.07,-1.02,44685148421.0,10.915,6.585,-6.28
616,616,2016-01-09 16:17:20.69,0.005,0.076,-1.012,44717990608.0,11.829,9.207,-5.549
617,617,2016-01-09 16:17:20.73,0.029,0.052,-1.0,44725871702.0,12.256,12.195,-6.768
618,618,2016-01-09 16:17:20.77,0.029,0.036,-1.011,44755146910.0,12.378,7.5,-5.122
619,619,2016-01-09 16:17:20.81,0.056,0.045,-1.002,44757631806.0,9.634,11.037,-3.72
620,620,2016-01-09 16:17:20.85,0.054,0.014,-0.995,44803570450.0,9.512,11.768,-2.256
621,621,2016-01-09 16:17:20.89,0.076,0.007,-0.974,44806111752.0,9.756,14.207,-2.744
622,622,2016-01-09 16:17:20.93,0.073,0.011,-1.003,44852702693.0,11.829,15.305,-3.232
623,623,2016-01-09 16:17:20.97,0.065,0.019,-1.009,44855283682.0,13.476,13.537,-1.646
624,624,2016-01-09 16:17:21.05,0.081,0.009,-1.006,44901398314.0,15.061,15.549,-0.061
625,625,2016-01-09 16:17:21.09,0.094,0.004,-0.981,44904011544.0,13.902,13.11,1.646
626,626,2016-01-09 16:17:21.13,0.093,-0.025,-0.976,44958289046.0,10.671,14.024,1.341
627,627,2016-01-09 16:17:21.17,0.112,-0.024,-0.987,45045634152.0,6.037,13.293,-0.793
628,628,2016-01-09 16:17:21.20,0.099,-0.002,-0.996,,,,
629,629,2016-01-09 16:17:21.25,0.099,-0.026,-0.983,45096508680.0,5.61,5.549,-2.866
630,630,2016-01-09 16:17:21.28,0.121,-0.036,-0.974,45123422691.0,2.805,4.329,-3.78
631,631,2016-01-09 16:17:21.33,0.132,-0.022,-1.008,45161745659.0,1.402,1.829,-3.598
632,632,2016-01-09 16:17:21.36,0.116,-0.03,-0.996,45177426857.0,1.646,1.037,-2.134
633,633,2016-01-09 16:17:21.40,0.126,-0.037,-0.991,45205563472.0,0.427,2.866,-2.683
634,634,2016-01-09 16:17:21.44,0.118,-0.029,-0.993,,,,
635,635,2016-01-09 16:17:21.48,0.117,-0.033,-0.976,45242525710.0,-0.244,0.976,-2.744
636,636,2016-01-09 16:17:21.52,0.128,-0.034,-0.98,45245132481.0,-0.854,0.549,-0.854
637,637,2016-01-09 16:17:21.56,0.117,-0.021,-0.983,45291430348.0,-2.927,0.305,1.037
638,638,2016-01-09 16:17:21.60,0.124,-0.021,-0.975,45293965348.0,-2.805,-0.488,1.402
639,639,2016-01-09 16:17:21.64,0.121,-0.015,-0.972,45339891910.0,-2.866,-1.098,1.524
640,640,2016-01-09 16:17:21.68,0.099,-0.022,-0.983,45342771390.0,-3.78,-3.232,3.841
641,641,2016-01-09 16:17:21.72,0.108,-0.014,-1.003,45388598107.0,-4.817,-5.061,4.268
642,642,2016-01-09 16:17:21.76,0.104,-0.021,-1.026,45391497587.0,-4.146,-6.22,3.963
643,643,2016-01-09 16:17:21.80,0.092,-0.034,-1.019,45437434826.0,-3.232,-7.134,3.11
644,644,2016-01-09 16:17:21.84,0.081,-0.009,-1.005,45439988159.0,-2.317,-3.11,2.073
645,645,2016-01-09 16:17:21.88,0.07,-0.024,-0.984,45494967691.0,-2.012,-3.171,7.195
646,646,2016-01-09 16:17:21.92,0.072,-0.037,-0.977,45510508525.0,-3.232,0.671,5.793
647,647,2016-01-09 16:17:21.96,0.058,-0.021,-1.002,45551804774.0,-2.744,-1.829,3.415
648,648,2016-01-09 16:17:22.00,0.072,-0.026,-1.004,45566456701.0,0.976,-2.439,1.646
649,649,2016-01-09 16:17:22.04,0.075,-0.024,-1.016,45600158107.0,-0.915,-2.073,1.951
650,650,2016-01-09 16:17:22.08,0.073,-0.027,-1.016,45617312118.0,-0.915,-3.415,1.768
651,651,2016-01-09 16:17:22.12,0.072,-0.043,-1.006,45644691545.0,1.463,-1.89,-0.61
652,652,2016-01-09 16:17:22.16,0.071,-0.041,-1.0,45646935138.0,0.366,-1.341,-1.098
653,653,2016-01-09 16:17:22.20,0.078,-0.034,-0.997,45681252429.0,-0.427,-0.732,-2.561
654,654,2016-01-09 16:17:22.24,0.077,-0.03,-0.998,45683824877.0,-0.366,-2.805,-1.585
655,655,2016-01-09 16:17:22.28,0.07,-0.033,-0.994,45729454149.0,-1.159,-1.707,0.061
656,656,2016-01-09 16:17:22.32,0.076,-0.027,-1.0,45775855191.0,-1.28,-0.366,2.012
657,657,2016-01-09 16:17:22.36,0.07,-0.028,-1.009,45779949149.0,1.22,0.244,3.354
658,658,2016-01-09 16:17:22.40,0.079,-0.029,-1.006,45824634200.0,1.463,2.256,2.073
659,659,2016-01-09 16:17:22.44,0.078,-0.027,-1.002,45924946024.0,0.305,4.878,1.098
660,660,2016-01-09 16:17:22.48,0.064,-0.042,-0.984,45927615087.0,0.61,2.256,-2.622
661,661,2016-01-09 16:17:22.56,0.072,-0.066,-1.005,45998409982.0,0.671,1.098,-5.183
662,662,2016-01-09 16:16:56.31,,,,27790865303.0,-4.207,-0.488,13.354
663,663,2016-01-09 16:16:56.55,,,,28033526188.0,14.695,39.573,2.988
664,664,2016-01-09 16:16:58.38,,,,29250119885.0,-17.439,-24.024,7.805
665,665,2016-01-09 16:17:01.76,,,,31664998842.0,-3.841,-3.232,-2.195
666,666,2016-01-09 16:17:03.55,,,,32765326187.0,2.378,51.22,-19.146
667,667,2016-01-09 16:17:05.38,,,,34054664987.0,-17.622,-45.366,-13.72
668,668,2016-01-09 16:17:14.21,,,,40172918786.0,-12.683,-19.39,1.22
669,669,2016-01-09 16:17:19.50,,,,43850567951.0,-11.768,-34.146,-5.183
670,670,2016-01-09 16:17:19.66,,,,43988779982.0,-4.756,-30.732,13.415
671,671,2016-01-09 16:17:21.21,,,,45065163734.0,4.756,8.11,-2.988
672,672,2016-01-09 16:17:21.45,,,,45207793367.0,0.732,1.28,-2.073
673,0,2016-01-09 16:20:04.75,-0.269,0.069,-0.973,,,,
674,1,2016-01-09 16:20:04.79,-0.223,0.047,-1.018,32912969258.0,1.28,-6.89,6.28
675,2,2016-01-09 16:20:04.83,-0.219,0.052,-1.013,32959548581.0,-3.232,-13.72,5.244
676,3,2016-01-09 16:20:04.87,-0.201,0.043,-1.026,32963404049.0,3.659,-4.146,1.341
677,4,2016-01-09 16:20:04.91,-0.228,0.066,-1.019,33056270247.0,6.829,2.439,0.366
678,5,2016-01-09 16:20:04.95,-0.258,0.057,-0.978,33059071133.0,1.098,5.122,0.305
679,6,2016-01-09 16:20:04.99,-0.233,0.069,-0.992,33103828945.0,-3.049,3.963,0.976
680,7,2016-01-09 16:20:05.03,-0.205,0.081,-1.005,33108207695.0,-0.427,1.098,2.195
681,8,2016-01-09 16:20:05.07,-0.209,0.074,-1.005,33151424101.0,-2.134,-1.28,2.622
682,9,2016-01-09 16:20:05.11,-0.223,0.078,-1.002,33155350976.0,-2.073,-0.305,1.646
683,10,2016-01-09 16:20:05.15,-0.242,0.081,-1.012,33200678945.0,-1.646,1.829,1.098
684,11,2016-01-09 16:20:05.19,-0.247,0.084,-1.012,33203405195.0,-1.951,2.805,0.122
685,12,2016-01-09 16:20:05.23,-0.25,0.071,-1.013,33249539987.0,-2.195,1.646,-1.28
686,13,2016-01-09 16:20:05.27,-0.221,0.078,-1.021,33252282018.0,-2.927,-0.183,-2.866
687,14,2016-01-09 16:20:05.31,-0.235,0.084,-0.998,33346346497.0,-3.293,-2.134,-3.598
688,15,2016-01-09 16:20:05.35,-0.261,0.083,-0.993,33349412383.0,-2.439,-0.488,-3.72
689,16,2016-01-09 16:20:05.39,-0.268,0.085,-1.0,33395251758.0,-1.159,2.134,-4.512
690,17,2016-01-09 16:20:05.43,-0.271,0.085,-1.028,33397740768.0,-0.976,1.524,-6.951
691,18,2016-01-09 16:20:05.47,-0.285,0.097,-1.065,33444254362.0,-1.098,-1.22,-11.159
692,19,2016-01-09 16:20:05.51,-0.272,0.099,-1.062,33446811029.0,-1.707,-4.085,-19.329
693,20,2016-01-09 16:20:05.55,-0.221,0.089,-1.025,33492981289.0,-0.915,-8.537,-24.573
694,21,2016-01-09 16:20:05.59,-0.282,0.114,-0.962,33495727018.0,-0.732,-15.732,-28.11
695,22,2016-01-09 16:20:05.63,-0.254,0.136,-0.973,33542211185.0,-0.244,-17.378,-25.976
696,23,2016-01-09 16:20:05.67,-0.293,0.099,-0.932,33544587227.0,0.61,-24.085,-19.695
697,24,2016-01-09 16:20:05.71,-0.367,0.042,-0.881,33590858737.0,-3.537,-23.354,-16.951
698,25,2016-01-09 16:20:05.75,-0.382,0.059,-0.937,33593164570.0,-4.939,-18.841,-12.988
699,26,2016-01-09 16:20:05.79,-0.356,0.073,-0.992,33639875455.0,-2.5,-12.378,-12.866
700,27,2016-01-09 16:20:05.83,-0.364,0.034,-0.966,33642176601.0,-2.378,-2.256,-15.549
701,28,2016-01-09 16:20:05.87,-0.326,0.043,-0.996,33783809882.0,-4.451,-5.305,-15.122
702,29,2016-01-09 16:20:05.91,-0.351,0.017,-0.968,33787491289.0,-4.756,-5.183,-14.939
703,30,2016-01-09 16:20:05.95,-0.33,0.008,-0.981,33832856237.0,-8.476,-2.622,-17.012
704,31,2016-01-09 16:20:06.03,-0.322,0.041,-0.979,33836156185.0,-9.939,-2.561,-19.329
705,32,2016-01-09 16:20:06.07,-0.318,0.037,-1.007,33881616080.0,-8.598,0.122,-12.5
706,33,2016-01-09 16:20:06.10,-0.384,0.065,-0.983,,,,
707,34,2016-01-09 16:20:06.15,-0.375,0.062,-0.977,33930282174.0,-10.122,-2.073,-10.122
708,35,2016-01-09 16:20:06.18,-0.34,0.07,-0.981,33979322903.0,-7.195,-2.439,-5.732
709,36,2016-01-09 16:20:06.23,-0.347,0.066,-0.966,33984777383.0,-8.841,-3.354,-4.939
710,37,2016-01-09 16:20:06.27,-0.344,0.067,-0.951,34027830664.0,-8.537,-4.878,-5.732
711,38,2016-01-09 16:20:06.30,-0.373,0.078,-0.976,34032559362.0,-7.439,-6.646,-3.841
712,39,2016-01-09 16:20:06.34,-0.372,0.091,-0.983,34076897643.0,-6.646,-6.646,-5.854
713,40,2016-01-09 16:20:06.38,-0.391,0.103,-0.968,,,,
714,41,2016-01-09 16:20:06.42,-0.385,0.102,-0.975,34127221133.0,-5.061,-10.305,-8.232
715,42,2016-01-09 16:20:06.46,-0.395,0.107,-0.984,34129748841.0,-7.805,-11.463,-5.61
716,43,2016-01-09 16:20:06.50,-0.416,0.109,-0.98,34175390299.0,-8.476,-6.524,-3.963
717,44,2016-01-09 16:20:06.54,-0.403,0.112,-0.978,34178117487.0,-7.866,-6.341,-3.354
718,45,2016-01-09 16:20:06.58,-0.41,0.107,-0.959,34225168789.0,-5.61,-5.305,-2.5
719,46,2016-01-09 16:20:06.62,-0.413,0.089,-0.954,34227651080.0,-3.841,-3.841,-3.963
720,47,2016-01-09 16:20:06.66,-0.423,0.102,-0.971,34273682695.0,-4.146,-4.329,-5.061
721,48,2016-01-09 16:20:06.70,-0.408,0.109,-0.978,34278590247.0,-2.378,-4.878,-2.561
722,49,2016-01-09 16:20:06.74,-0.425,0.107,-0.943,34372778632.0,1.341,-7.561,-1.707
723,50,2016-01-09 16:20:06.78,-0.387,0.095,-0.945,34378535351.0,0.427,-8.659,-0.793
724,51,2016-01-09 16:20:06.82,-0.438,0.093,-0.941,34421029466.0,0.0,-10.061,0.183
725,52,2016-01-09 16:20:06.86,-0.466,0.101,-0.925,34426881133.0,0.305,-5.671,-1.22
726,53,2016-01-09 16:20:06.90,-0.448,0.105,-0.935,34469806497.0,-0.061,-4.573,-2.012
727,54,2016-01-09 16:20:06.94,-0.44,0.096,-0.939,34475068164.0,-0.244,-5.61,-2.378
728,55,2016-01-09 16:20:06.98,-0.479,0.104,-0.926,34517053945.0,-1.646,-7.866,-5.305
729,56,2016-01-09 16:20:07.02,-0.455,0.115,-0.935,34519757903.0,-2.866,-8.11,-4.695
730,57,2016-01-09 16:20:07.06,-0.477,0.103,-0.915,34565627174.0,-3.354,-9.329,-1.463
731,58,2016-01-09 16:20:07.10,-0.478,0.106,-0.928,34568471705.0,-5.305,-6.402,-1.159
732,59,2016-01-09 16:20:07.14,-0.49,0.12,-0.932,34614693581.0,-5.122,-5.244,-1.22
733,60,2016-01-09 16:20:07.18,-0.522,0.123,-0.923,34712026601.0,-3.72,-2.805,-3.354
734,61,2016-01-09 16:20:07.22,-0.475,0.123,-0.961,34715561393.0,-5.366,-1.951,-4.329
735,62,2016-01-09 16:20:07.26,-0.516,0.104,-0.927,34760743476.0,-9.146,-5.549,-7.317
736,63,2016-01-09 16:20:07.30,-0.518,0.081,-0.893,34763513684.0,-12.927,-5.61,-11.585
737,64,2016-01-09 16:20:07.34,-0.543,0.104,-0.887,34810407174.0,-11.768,-12.988,-10.671
738,65,2016-01-09 16:20:07.38,-0.573,0.124,-0.884,34812631549.0,-9.085,-11.829,-13.598
739,66,2016-01-09 16:20:07.42,-0.54,0.109,-0.86,34859245091.0,-10.61,-7.378,-13.902
740,67,2016-01-09 16:20:07.46,-0.447,0.127,-0.908,34861988997.0,-12.805,-9.878,-11.159
741,68,2016-01-09 16:20:07.50,-0.449,0.139,-0.908,34907159674.0,-14.085,-6.463,-4.695
742,69,2016-01-09 16:20:07.54,-0.473,0.151,-0.908,34909858997.0,-11.341,4.39,3.72
743,70,2016-01-09 16:20:07.58,-0.556,0.14,-0.867,34956088008.0,-6.098,16.341,5.61
744,71,2016-01-09 16:20:07.62,-0.427,0.141,-0.917,34959761966.0,2.378,21.707,2.622
745,72,2016-01-09 16:20:07.66,-0.383,0.145,-0.967,35005362747.0,3.232,13.293,4.573
746,73,2016-01-09 16:20:07.70,-0.378,0.145,-1.0,35007465507.0,-0.305,14.085,4.451
747,74,2016-01-09 16:20:07.74,-0.405,0.128,-0.983,35054372070.0,-0.732,17.134,0.183
748,75,2016-01-09 16:20:07.78,-0.414,0.151,-1.008,35057981810.0,2.195,21.098,-3.537
749,76,2016-01-09 16:20:07.82,-0.419,0.134,-0.966,35102653736.0,-4.085,24.634,-8.476
750,77,2016-01-09 16:20:07.85,-0.365,0.15,-0.965,35105821133.0,-5.671,27.256,-11.28
751,78,2016-01-09 16:20:07.90,-0.267,0.117,-0.987,35152555872.0,-6.89,22.378,-6.585
752,79,2016-01-09 16:20:07.94,-0.375,0.167,-0.98,35197590612.0,-8.72,17.622,-7.134
753,80,2016-01-09 16:20:07.97,-0.377,0.157,-0.942,35201845403.0,-8.11,28.171,-16.524
754,81,2016-01-09 16:20:08.01,-0.317,0.166,-0.967,35246267174.0,-5.61,24.756,-15.0
755,82,2016-01-09 16:20:08.06,-0.334,0.183,-0.997,35250652695.0,-8.537,13.72,-7.805
756,83,2016-01-09 16:20:08.09,-0.373,0.16,-0.94,35295048372.0,-8.598,8.902,-7.683
757,84,2016-01-09 16:20:08.13,-0.336,0.2,-1.001,35298965716.0,-6.402,14.207,-8.171
758,85,2016-01-09 16:20:08.17,-0.398,0.187,-0.954,35343776965.0,-6.463,7.134,-1.463
759,86,2016-01-09 16:20:08.21,-0.351,0.203,-0.959,35347594622.0,-5.854,11.28,-7.622
760,87,2016-01-09 16:20:08.25,-0.269,0.219,-0.976,35392654413.0,-3.598,2.805,-1.768
761,88,2016-01-09 16:20:08.29,-0.315,0.19,-0.949,35396095143.0,-5.671,-7.561,8.659
762,89,2016-01-09 16:20:08.33,-0.307,0.173,-0.969,35441304518.0,-6.098,0.732,5.793
763,90,2016-01-09 16:20:08.41,-0.298,0.232,-1.01,35443612226.0,-7.988,3.171,6.89
764,91,2016-01-09 16:20:08.45,-0.306,0.198,-0.981,35489970664.0,-6.037,3.659,10.915
765,92,2016-01-09 16:20:08.49,-0.342,0.176,-0.979,35590306080.0,-4.207,9.756,14.268
766,93,2016-01-09 16:20:08.53,-0.361,0.153,-0.961,35592386601.0,-6.646,10.183,11.585
767,94,2016-01-09 16:20:08.57,-0.349,0.201,-0.984,35637990455.0,-4.756,0.366,10.122
768,95,2016-01-09 16:20:08.61,-0.328,0.192,-0.97,35639962122.0,-0.671,-8.902,6.524
769,96,2016-01-09 16:20:08.65,-0.315,0.21,-0.979,35687166185.0,3.537,-5.183,1.707
770,97,2016-01-09 16:20:08.69,-0.301,0.192,-0.938,35689128059.0,5.183,-5.122,1.585
771,98,2016-01-09 16:20:08.73,-0.365,0.22,-0.966,35757926445.0,7.866,0.732,-0.488
772,99,2016-01-09 16:20:08.77,-0.314,0.232,-0.981,35798881393.0,6.159,-1.098,-0.854
773,100,2016-01-09 16:20:08.81,-0.264,0.196,-0.984,35802132590.0,5.549,-4.146,0.0
774,101,2016-01-09 16:20:08.85,-0.274,0.199,-0.971,35804770976.0,4.817,-6.768,1.098
775,102,2016-01-09 16:20:08.89,-0.273,0.198,-0.956,35834197695.0,5.915,-2.378,6.585
776,103,2016-01-09 16:20:08.93,-0.285,0.183,-0.948,35836984726.0,4.512,-4.756,4.573
777,104,2016-01-09 16:20:08.97,-0.246,0.173,-0.955,35882642746.0,0.915,-7.805,3.72
778,105,2016-01-09 16:20:09.01,-0.232,0.148,-0.943,35885460663.0,-1.768,-3.171,4.512
779,106,2016-01-09 16:20:09.05,-0.356,0.173,-0.959,35931281079.0,-5.366,7.866,2.439
780,107,2016-01-09 16:20:09.09,-0.329,0.204,-1.0,35935071184.0,-9.146,21.159,-8.78
781,108,2016-01-09 16:20:09.13,-0.255,0.202,-1.022,35980157017.0,-9.451,26.159,-14.634
782,109,2016-01-09 16:20:09.17,-0.329,0.213,-1.028,35982838631.0,-7.5,17.378,-8.598
783,110,2016-01-09 16:20:09.21,-0.395,0.236,-0.991,36028834933.0,-2.073,14.817,-0.488
784,111,2016-01-09 16:20:09.25,-0.412,0.186,-0.947,36031496704.0,-1.951,5.061,4.878
785,112,2016-01-09 16:20:09.29,-0.38,0.152,-0.929,36077609101.0,-1.829,0.305,3.598
786,113,2016-01-09 16:20:09.33,-0.245,0.163,-0.939,36080263996.0,-2.317,-1.707,2.195
787,114,2016-01-09 16:20:09.37,-0.298,0.155,-0.939,36132632799.0,0.793,-0.366,3.171
788,115,2016-01-09 16:20:09.41,-0.261,0.159,-0.981,36141687955.0,2.195,6.707,0.305
789,116,2016-01-09 16:20:09.45,-0.29,0.154,-0.996,36186687434.0,-1.28,4.085,-1.341
790,117,2016-01-09 16:20:09.49,-0.304,0.169,-1.05,36198200038.0,-1.585,8.72,-4.878
791,118,2016-01-09 16:20:09.53,-0.262,0.181,-1.047,36235671133.0,-4.878,15.61,-4.085
792,119,2016-01-09 16:20:09.57,-0.268,0.197,-1.006,36271962902.0,-4.939,10.61,-6.463
793,120,2016-01-09 16:20:09.61,-0.241,0.169,-0.974,36291475507.0,-4.085,6.463,-7.134
794,121,2016-01-09 16:20:09.65,-0.202,0.191,-0.97,36332932277.0,-3.72,7.5,-1.646
795,122,2016-01-09 16:20:09.69,-0.224,0.2,-0.975,36346514100.0,-1.707,4.878,1.524
796,123,2016-01-09 16:20:09.72,-0.232,0.216,-0.996,36466747331.0,-2.256,6.28,-2.683
797,124,2016-01-09 16:20:09.76,-0.173,0.211,-1.005,,,,
798,125,2016-01-09 16:20:09.81,-0.196,0.202,-0.985,36516805872.0,-4.024,7.744,2.256
799,126,2016-01-09 16:20:09.84,-0.205,0.188,-0.968,36543313788.0,-5.183,10.244,6.037
800,127,2016-01-09 16:20:09.92,-0.197,0.217,-0.993,36565551445.0,-6.463,7.988,5.183
801,128,2016-01-09 16:20:09.96,-0.184,0.222,-1.003,36580038632.0,-5.366,4.878,5.0
802,129,2016-01-09 16:20:10.00,-0.165,0.241,-0.974,36610966234.0,-5.183,7.195,8.537
803,130,2016-01-09 16:20:10.00,-0.165,0.241,-0.974,37210564257.0,-1.89,7.073,4.451
804,131,2016-01-09 16:20:10.00,-0.096,0.259,-0.989,36610966234.0,-5.183,7.195,8.537
805,132,2016-01-09 16:20:10.00,-0.096,0.259,-0.989,37210564257.0,-1.89,7.073,4.451
806,133,2016-01-09 16:20:10.04,-0.164,0.249,-0.983,36614712590.0,-4.024,6.463,9.817
807,134,2016-01-09 16:20:10.08,-0.168,0.243,-0.996,36662711548.0,-3.78,8.476,10.488
808,135,2016-01-09 16:20:10.12,-0.165,0.26,-0.981,36665754622.0,-5.366,15.549,12.317
809,136,2016-01-09 16:20:10.16,-0.151,0.275,-0.995,36711458944.0,-6.098,13.354,10.366
810,137,2016-01-09 16:20:10.20,-0.126,0.3,-1.006,36714447904.0,-5.61,7.561,6.89
811,138,2016-01-09 16:20:10.24,-0.154,0.258,-0.981,36760156808.0,-6.098,6.159,2.927
812,139,2016-01-09 16:20:10.28,-0.177,0.272,-0.985,36762844881.0,-6.463,6.22,-1.402
813,140,2016-01-09 16:20:10.32,-0.21,0.258,-0.968,36808941756.0,-7.256,2.439,-3.659
814,141,2016-01-09 16:20:10.36,-0.186,0.219,-0.982,36811703370.0,-4.878,2.073,-2.378
815,142,2016-01-09 16:20:10.40,-0.191,0.216,-0.988,36867694620.0,-3.476,0.183,-3.415
816,143,2016-01-09 16:20:10.44,-0.2,0.215,-1.015,36876513735.0,-1.951,-0.122,-2.195
817,144,2016-01-09 16:20:10.48,-0.234,0.211,-1.004,36914196758.0,-1.524,-2.073,-3.171
818,145,2016-01-09 16:20:10.52,-0.155,0.204,-0.969,36922550559.0,0.732,-6.89,-7.622
819,146,2016-01-09 16:20:10.56,-0.148,0.225,-0.983,36963088007.0,2.866,-11.707,-3.841
820,147,2016-01-09 16:20:10.60,-0.212,0.25,-0.954,36971861705.0,2.927,-6.646,-1.402
821,148,2016-01-09 16:20:10.64,-0.241,0.261,-0.977,37011620194.0,1.524,1.28,-9.451
822,149,2016-01-09 16:20:10.68,-0.185,0.239,-1.013,37020325558.0,-2.195,5.488,-15.488
823,150,2016-01-09 16:20:10.72,-0.092,0.304,-1.03,37060323788.0,-2.805,8.354,-12.073
824,151,2016-01-09 16:20:10.76,-0.112,0.246,-1.002,37069316028.0,1.829,8.415,-5.366
825,152,2016-01-09 16:20:10.80,-0.101,0.248,-1.024,37111268943.0,3.963,14.085,-2.805
826,153,2016-01-09 16:20:10.84,-0.059,0.256,-0.962,37123268371.0,1.829,7.744,-3.171
827,154,2016-01-09 16:20:10.88,-0.073,0.25,-0.939,37162357799.0,2.195,7.256,-0.122
828,155,2016-01-09 16:20:10.92,-0.082,0.243,-0.971,37174540508.0,0.305,7.073,0.488
829,156,2016-01-09 16:20:11.04,-0.082,0.273,-0.982,37222185090.0,-2.073,9.817,5.183
830,157,2016-01-09 16:20:11.08,-0.118,0.25,-1.021,37354199882.0,-0.122,10.915,4.146
831,158,2016-01-09 16:20:11.12,-0.136,0.281,-1.012,37371597694.0,2.012,7.195,2.439
832,159,2016-01-09 16:20:11.16,-0.091,0.217,-0.993,37397841079.0,3.72,3.598,0.793
833,160,2016-01-09 16:20:11.20,-0.117,0.207,-0.956,37401272225.0,0.854,-1.159,2.5
834,161,2016-01-09 16:20:11.24,-0.095,0.232,-0.973,37439677380.0,3.11,-0.061,1.037
835,162,2016-01-09 16:20:11.28,-0.107,0.215,-0.977,37450574256.0,8.963,-0.183,1.402
836,163,2016-01-09 16:20:11.32,-0.097,0.206,-1.013,37491356652.0,9.024,3.354,0.915
837,164,2016-01-09 16:20:11.36,-0.11,0.156,-1.005,37494074361.0,4.085,3.902,1.463
838,165,2016-01-09 16:20:11.40,-0.094,0.196,-1.027,37540032173.0,2.866,5.122,1.768
839,166,2016-01-09 16:20:11.43,-0.092,0.209,-1.028,37542671652.0,4.939,-0.488,3.963
840,167,2016-01-09 16:20:11.47,-0.081,0.223,-1.011,37589050713.0,8.902,-1.098,6.159
841,168,2016-01-09 16:20:11.52,-0.052,0.198,-1.0,37591641234.0,8.476,-0.488,8.293
842,169,2016-01-09 16:20:11.55,-0.094,0.184,-0.988,37637576236.0,5.854,1.098,7.744
843,170,2016-01-09 16:20:11.59,-0.109,0.175,-0.96,37640263736.0,3.72,1.89,6.524
844,171,2016-01-09 16:20:11.64,-0.111,0.191,-0.958,37753014673.0,0.183,1.829,7.195
845,172,2016-01-09 16:20:11.67,-0.104,0.182,-0.977,37769204777.0,0.854,-2.744,10.854
846,173,2016-01-09 16:20:11.71,-0.138,0.163,-0.993,37791460767.0,1.402,-1.28,10.915
847,174,2016-01-09 16:20:11.75,-0.105,0.19,-1.016,37794375194.0,2.012,-0.244,15.122
848,175,2016-01-09 16:20:11.79,-0.035,0.219,-1.033,37832703525.0,4.39,0.366,20.488
849,176,2016-01-09 16:20:11.83,-0.06,0.216,-1.105,37835771026.0,7.256,3.659,12.927
850,177,2016-01-09 16:20:11.87,-0.066,0.171,-1.07,37881427850.0,6.951,11.037,1.524
851,178,2016-01-09 16:20:11.91,-0.03,0.14,-0.998,37884459830.0,-1.646,14.024,-5.488
852,179,2016-01-09 16:20:11.95,-0.032,0.128,-0.914,37930060870.0,-15.427,8.415,-4.695
853,180,2016-01-09 16:20:11.99,-0.05,0.151,-0.906,37932749932.0,-20.488,0.0,-1.463
854,181,2016-01-09 16:20:12.03,-0.053,0.193,-0.935,37978900558.0,-17.195,0.915,2.073
855,182,2016-01-09 16:20:12.07,-0.032,0.223,-1.031,37981564829.0,-8.72,-0.793,9.268
856,183,2016-01-09 16:20:12.11,-0.08,0.275,-1.071,38027734204.0,-1.646,-2.134,8.659
857,184,2016-01-09 16:20:12.15,-0.104,0.249,-1.058,38030339152.0,2.622,-1.707,6.037
858,185,2016-01-09 16:20:12.19,-0.079,0.247,-1.021,38083779516.0,0.61,-0.915,9.817
859,186,2016-01-09 16:20:12.23,-0.028,0.22,-0.98,38092564464.0,-1.89,3.11,12.256
860,187,2016-01-09 16:20:12.27,-0.022,0.201,-0.941,38132193527.0,-4.817,7.134,12.805
861,188,2016-01-09 16:20:12.31,-0.014,0.192,-0.954,38140798110.0,-7.317,16.89,7.439
862,189,2016-01-09 16:20:12.35,-0.007,0.193,-0.98,38288064516.0,-7.317,12.988,3.293
863,190,2016-01-09 16:20:12.39,-0.012,0.209,-1.012,38303874516.0,-4.329,10.427,0.732
864,191,2016-01-09 16:20:12.43,-0.008,0.22,-1.054,38329328474.0,1.037,16.22,0.0
865,192,2016-01-09 16:20:12.51,0.019,0.231,-1.032,38332037328.0,6.585,25.915,-1.707
866,193,2016-01-09 16:20:12.55,0.011,0.212,-1.01,38368959620.0,8.476,26.402,2.073
867,194,2016-01-09 16:20:12.59,-0.021,0.209,-0.966,38371589672.0,-12.927,-4.878,3.232
868,195,2016-01-09 16:20:12.63,0.004,0.208,-0.948,38417490870.0,-16.098,-1.829,0.793
869,196,2016-01-09 16:20:12.67,0.014,0.207,-0.972,38420217380.0,-13.72,0.244,0.793
870,197,2016-01-09 16:20:12.71,0.027,0.22,-0.995,38466598163.0,-6.159,0.061,1.037
871,198,2016-01-09 16:20:12.75,0.027,0.23,-0.991,38469357433.0,-0.061,0.244,-0.793
872,199,2016-01-09 16:20:12.79,0.015,0.216,-0.985,38516484359.0,1.28,0.183,-2.744
873,200,2016-01-09 16:20:12.83,0.008,0.218,-0.988,38519249515.0,2.866,-0.488,-2.256
874,201,2016-01-09 16:20:12.87,0.028,0.213,-0.984,38572090819.0,2.683,-0.061,-1.22
875,202,2016-01-09 16:20:12.91,0.03,0.22,-0.972,38611986339.0,3.049,-0.244,-0.366
876,203,2016-01-09 16:20:12.95,0.042,0.236,-0.982,38634746809.0,2.073,2.561,0.427
877,204,2016-01-09 16:20:12.99,0.038,0.222,-0.979,38669033423.0,1.768,3.415,-1.951
878,205,2016-01-09 16:20:13.03,0.044,0.229,-0.984,38686551809.0,3.049,5.061,-2.988
879,206,2016-01-09 16:20:13.07,0.014,0.21,-0.998,38710393579.0,6.159,2.439,-4.329
880,207,2016-01-09 16:20:13.10,0.011,0.22,-1.004,38728478527.0,7.256,2.744,-7.866
881,208,2016-01-09 16:20:13.14,0.019,0.207,-0.986,,,,
882,209,2016-01-09 16:20:13.19,-0.009,0.178,-0.979,38760338005.0,9.024,-5.549,-13.598
883,210,2016-01-09 16:20:13.23,-0.029,0.166,-0.965,38804721755.0,10.61,-5.122,-18.476
884,211,2016-01-09 16:20:13.27,-0.022,0.166,-0.994,38809048838.0,13.232,-8.841,-22.195
885,212,2016-01-09 16:20:13.30,-0.038,0.157,-1.032,38854897693.0,14.024,-15.061,-24.512
886,213,2016-01-09 16:20:13.34,-0.043,0.163,-1.05,38858471756.0,14.329,-19.146,-21.646
887,214,2016-01-09 16:20:13.38,-0.051,0.138,-0.997,38902366339.0,16.098,-21.341,-19.878
888,215,2016-01-09 16:20:13.42,-0.046,0.12,-0.985,38907122486.0,15.122,-20.488,-17.5
889,216,2016-01-09 16:20:13.46,-0.069,0.134,-1.02,38950971755.0,6.829,-18.415,-11.28
890,217,2016-01-09 16:20:13.50,-0.063,0.14,-1.017,39005670663.0,3.171,-18.293,-7.317
891,218,2016-01-09 16:20:13.54,-0.058,0.145,-1.036,39009651444.0,-0.305,-11.22,-3.11
892,219,2016-01-09 16:20:13.58,-0.087,0.134,-1.022,39053562901.0,-3.049,-6.463,1.341
893,220,2016-01-09 16:20:13.62,-0.095,0.145,-1.016,39066339724.0,-1.707,0.427,1.707
894,221,2016-01-09 16:20:13.66,-0.095,0.151,-0.99,39211945663.0,-2.378,-1.037,1.159
895,222,2016-01-09 16:20:13.70,-0.094,0.139,-1.011,39228265766.0,-4.024,0.427,2.195
896,223,2016-01-09 16:20:13.74,-0.095,0.137,-1.006,39261793839.0,-3.598,-1.28,3.293
897,224,2016-01-09 16:20:13.78,-0.075,0.138,-1.016,39295525871.0,-5.305,1.463,7.134
898,225,2016-01-09 16:20:13.82,-0.075,0.156,-1.014,39320341964.0,-4.878,-0.915,10.61
899,226,2016-01-09 16:20:13.86,-0.08,0.16,-1.001,39343975402.0,-2.744,6.585,8.171
900,227,2016-01-09 16:20:13.90,-0.097,0.157,-1.006,39359501548.0,-0.488,8.598,5.0
901,228,2016-01-09 16:20:13.94,-0.099,0.163,-1.0,39389708839.0,-0.305,0.793,2.317
902,229,2016-01-09 16:20:14.02,-0.063,0.159,-1.008,39393943422.0,-1.768,-2.744,2.256
903,230,2016-01-09 16:20:14.06,-0.059,0.161,-1.013,39438441337.0,-5.183,0.061,2.622
904,231,2016-01-09 16:20:14.10,-0.039,0.16,-1.011,39442871962.0,-3.476,13.476,4.573
905,232,2016-01-09 16:20:14.14,-0.057,0.168,-1.004,39487204934.0,-0.488,6.098,4.817
906,233,2016-01-09 16:20:14.18,-0.031,0.158,-0.997,39491484517.0,-1.159,12.134,2.317
907,234,2016-01-09 16:20:14.26,-0.022,0.165,-1.012,39535939151.0,-2.134,15.976,3.171
908,235,2016-01-09 16:20:14.30,-0.018,0.17,-1.007,39540196026.0,-2.5,10.915,1.28
909,236,2016-01-09 16:20:14.34,-0.031,0.178,-1.011,39584686079.0,-4.573,5.915,0.061
910,237,2016-01-09 16:20:14.38,-0.041,0.171,-1.01,39588981443.0,-3.171,2.439,0.0
911,238,2016-01-09 16:20:14.42,-0.051,0.158,-1.017,39682191912.0,-3.171,1.159,-0.915
912,239,2016-01-09 16:20:14.46,-0.034,0.164,-1.016,39693832225.0,0.0,-1.402,-1.037
913,240,2016-01-09 16:20:14.50,-0.03,0.159,-0.998,39732392327.0,3.049,-5.183,-0.915
914,241,2016-01-09 16:20:14.54,-0.027,0.151,-0.999,39749426390.0,2.866,-2.195,-1.159
915,242,2016-01-09 16:20:14.58,-0.02,0.145,-1.007,39791274255.0,0.488,-0.244,-0.244
916,243,2016-01-09 16:20:14.62,-0.016,0.156,-1.024,39803842015.0,0.0,-1.098,2.866
917,244,2016-01-09 16:20:14.66,-0.041,0.153,-1.033,39842999098.0,2.256,-2.439,2.805
918,245,2016-01-09 16:20:14.70,-0.041,0.157,-1.028,39855583682.0,2.256,-0.549,0.244
919,246,2016-01-09 16:20:14.74,-0.046,0.161,-1.005,39915298421.0,0.671,-0.549,-2.317
920,247,2016-01-09 16:20:14.78,-0.048,0.162,-0.994,39939157328.0,0.793,4.207,-4.939
921,248,2016-01-09 16:20:14.82,-0.038,0.153,-0.995,39941744411.0,-1.768,4.024,-7.012
922,249,2016-01-09 16:20:14.86,-0.044,0.162,-1.019,39944426963.0,-1.341,1.951,-7.317
923,250,2016-01-09 16:20:14.90,-0.033,0.147,-0.994,39977640714.0,0.793,2.317,-7.256
924,251,2016-01-09 16:20:14.94,-0.015,0.155,-1.031,39980347172.0,1.646,3.598,-5.915
925,252,2016-01-09 16:20:14.97,-0.026,0.157,-0.997,,,,
926,253,2016-01-09 16:20:15.02,0.0,0.135,-0.986,40125607954.0,1.951,7.073,-5.854
927,254,2016-01-09 16:20:15.06,-0.008,0.128,-0.981,40169732223.0,-0.122,4.512,-8.476
928,255,2016-01-09 16:20:15.10,-0.01,0.128,-0.998,40173972275.0,-0.854,7.378,-10.122
929,256,2016-01-09 16:20:15.13,-0.042,0.155,-1.019,40219844723.0,3.293,4.817,-11.768
930,257,2016-01-09 16:20:15.17,-0.02,0.149,-1.039,40239379411.0,6.098,4.39,-11.098
931,258,2016-01-09 16:20:15.21,-0.0,0.13,-1.024,40273670610.0,5.0,0.427,-10.488
932,259,2016-01-09 16:20:15.25,-0.028,0.116,-0.973,40288182849.0,1.829,2.073,-9.939
933,260,2016-01-09 16:20:15.29,0.006,0.104,-0.968,40318186494.0,-3.476,7.195,-9.695
934,261,2016-01-09 16:20:15.33,0.005,0.131,-0.984,40337270244.0,-3.78,5.061,-10.793
935,262,2016-01-09 16:20:15.37,0.01,0.139,-0.986,40367809411.0,-2.683,5.61,-12.622
936,263,2016-01-09 16:20:15.41,0.027,0.157,-1.01,40386945609.0,-2.5,9.39,-12.927
937,264,2016-01-09 16:20:15.45,0.021,0.141,-0.99,40415679203.0,0.061,5.976,-11.829
938,265,2016-01-09 16:20:15.53,0.017,0.148,-1.003,40433730505.0,0.305,6.707,-3.598
939,266,2016-01-09 16:20:15.57,0.052,0.135,-0.993,40478677016.0,-1.585,4.695,1.463
940,267,2016-01-09 16:20:15.61,0.042,0.146,-1.007,40491165974.0,-4.695,4.573,3.232
941,268,2016-01-09 16:20:15.65,0.039,0.157,-1.018,40525952276.0,-9.024,7.622,3.354
942,269,2016-01-09 16:20:15.69,0.041,0.159,-0.999,40538050974.0,-8.537,5.976,3.293
943,270,2016-01-09 16:20:15.77,0.058,0.184,-0.979,40575724724.0,-7.439,4.024,3.049
944,271,2016-01-09 16:20:15.81,0.048,0.202,-0.965,40586828526.0,-9.451,3.537,2.073
945,272,2016-01-09 16:20:15.85,0.065,0.175,-0.97,40621605921.0,-1.585,4.329,3.049
946,273,2016-01-09 16:20:15.89,0.065,0.181,-1.008,40635109932.0,-3.293,2.195,4.512
947,274,2016-01-09 16:20:15.93,0.062,0.192,-1.008,40723954359.0,-4.207,1.768,6.951
948,275,2016-01-09 16:20:15.97,0.044,0.199,-1.045,40740072901.0,-0.671,-1.28,9.085
949,276,2016-01-09 16:20:16.01,0.034,0.139,-0.965,40781336703.0,1.463,-3.171,10.671
950,277,2016-01-09 16:20:16.05,0.028,0.11,-0.963,40799444984.0,5.488,-1.646,9.695
951,278,2016-01-09 16:20:16.09,0.004,0.17,-1.028,40819523109.0,7.805,-3.537,8.72
952,279,2016-01-09 16:20:16.13,-0.001,0.148,-1.03,40822213943.0,20.549,-11.037,8.476
953,280,2016-01-09 16:20:16.17,0.017,0.104,-1.017,40855113058.0,28.11,-14.817,6.037
954,281,2016-01-09 16:20:16.21,-0.008,0.111,-1.009,40857893266.0,22.195,-10.061,5.854
955,282,2016-01-09 16:20:16.25,-0.002,0.101,-0.998,40904562954.0,14.451,-5.549,3.78
956,283,2016-01-09 16:20:16.29,0.004,0.084,-0.986,40949696911.0,10.915,-4.817,2.317
957,284,2016-01-09 16:20:16.33,-0.005,0.066,-0.979,41047226703.0,9.024,-4.207,0.427
958,285,2016-01-09 16:20:16.37,-0.006,0.07,-1.006,41051476859.0,5.366,-0.793,-1.22
959,286,2016-01-09 16:20:16.41,0.0,0.082,-1.035,41097413630.0,4.695,-1.037,-2.134
960,287,2016-01-09 16:20:16.45,-0.005,0.07,-1.039,41118176025.0,6.463,-1.951,-1.829
961,288,2016-01-09 16:20:16.49,-0.003,0.055,-1.035,41153947327.0,6.646,1.341,-4.085
962,289,2016-01-09 16:20:16.53,-0.01,0.044,-1.01,41174328161.0,3.354,5.854,-5.854
963,290,2016-01-09 16:20:16.57,-0.009,0.046,-1.015,41196705817.0,2.195,3.72,-6.098
964,291,2016-01-09 16:20:16.61,-0.007,0.038,-1.005,41211166338.0,3.902,-2.866,-5.732
965,292,2016-01-09 16:20:16.65,0.001,0.038,-1.006,41242153161.0,4.085,-5.366,-4.939
966,293,2016-01-09 16:20:16.69,-0.004,0.052,-1.02,41246418006.0,1.463,-3.293,-3.902
967,294,2016-01-09 16:20:16.72,-0.01,0.046,-1.02,41290935191.0,0.427,-5.427,-3.415
968,295,2016-01-09 16:20:16.77,-0.004,0.041,-1.006,41295505505.0,-0.915,-4.878,-2.927
969,296,2016-01-09 16:20:16.81,-0.018,0.055,-1.003,41339684775.0,-1.22,-3.476,-1.463
970,297,2016-01-09 16:20:16.84,-0.036,0.055,-1.018,41343978942.0,-0.122,-4.756,-1.28
971,298,2016-01-09 16:20:16.89,-0.035,0.05,-1.036,41388431390.0,-1.463,-7.256,-1.89
972,299,2016-01-09 16:20:16.92,-0.018,0.054,-1.02,41392802484.0,-0.549,-8.293,-1.646
973,300,2016-01-09 16:20:16.96,-0.028,0.051,-1.002,41437175765.0,2.988,-2.988,-0.976
974,301,2016-01-09 16:20:17.04,-0.03,0.053,-1.0,41488826859.0,0.488,-2.134,-0.976
975,302,2016-01-09 16:20:17.08,-0.031,0.049,-1.019,41491605817.0,-0.854,-1.585,-1.098
976,303,2016-01-09 16:20:17.12,-0.031,0.045,-1.021,41539868370.0,-0.244,0.488,-1.28
977,304,2016-01-09 16:20:17.16,-0.034,0.049,-1.013,41542468943.0,-1.159,-0.915,-1.89
978,305,2016-01-09 16:20:17.20,-0.045,0.049,-1.01,41593706651.0,-0.732,-1.646,-1.951
979,306,2016-01-09 16:20:17.24,-0.044,0.05,-1.012,41608104047.0,-0.793,-2.622,-1.89
980,307,2016-01-09 16:20:17.28,-0.046,0.057,-1.011,41650855297.0,-0.366,-2.439,-1.89
981,308,2016-01-09 16:20:17.32,-0.036,0.054,-1.022,41665229203.0,-0.366,0.0,-2.378
982,309,2016-01-09 16:20:17.36,-0.029,0.052,-1.017,41697058787.0,-1.707,-0.427,-2.012
983,310,2016-01-09 16:20:17.40,-0.028,0.051,-1.014,41700010193.0,-1.951,2.439,-1.89
984,311,2016-01-09 16:20:17.44,-0.029,0.04,-1.007,41732714202.0,-0.366,4.878,-1.829
985,312,2016-01-09 16:20:17.48,-0.035,0.035,-1.008,41735479411.0,-0.061,1.89,-1.463
986,313,2016-01-09 16:20:17.52,-0.037,0.033,-1.011,41830187015.0,0.061,0.61,-1.524
987,314,2016-01-09 16:20:17.56,-0.038,0.033,-1.015,41832861702.0,-0.305,-0.732,-1.22
988,315,2016-01-09 16:20:17.60,-0.037,0.035,-1.01,41879485609.0,0.427,-2.439,-0.427
989,316,2016-01-09 16:20:17.64,-0.048,0.042,-1.011,42041730244.0,-0.061,-3.049,-0.183
990,317,2016-01-09 16:20:17.68,-0.061,0.042,-1.011,42057821912.0,-0.915,-4.756,-1.098
991,318,2016-01-09 16:20:17.72,-0.071,0.045,-1.013,42073823265.0,-1.646,-7.195,-2.561
992,319,2016-01-09 16:20:17.76,-0.075,0.046,-1.004,42076876182.0,-2.195,-10.305,-3.232
993,320,2016-01-09 16:20:17.80,-0.084,0.047,-1.023,42122493734.0,-0.854,-10.61,-2.805
994,321,2016-01-09 16:20:17.84,-0.08,0.052,-1.031,42125494723.0,0.61,-9.878,-2.866
995,322,2016-01-09 16:20:17.88,-0.077,0.047,-1.031,42171330973.0,0.366,-4.634,-2.561
996,323,2016-01-09 16:20:17.92,-0.076,0.046,-1.018,42217924775.0,-0.61,-2.927,-2.439
997,324,2016-01-09 16:20:17.96,-0.073,0.043,-1.009,42271086077.0,-0.305,0.854,-2.439
998,325,2016-01-09 16:20:17.00,-0.079,0.037,-1.007,42281661233.0,0.549,2.012,-2.683
999,326,2016-01-09 16:20:18.04,-0.078,0.034,-1.019,42316301233.0,1.22,1.28,-2.866
1000,327,2016-01-09 16:20:18.08,-0.073,0.035,-1.016,42331390087.0,2.256,1.89,-3.232
1001,328,2016-01-09 16:20:18.12,-0.069,0.029,-1.017,42367141389.0,2.256,2.866,-3.78
1002,329,2016-01-09 16:20:18.16,-0.067,0.03,-1.027,42380305087.0,0.793,2.012,-5.183
1003,330,2016-01-09 16:20:18.20,-0.067,0.037,-1.026,42413664514.0,-1.341,3.354,-7.5
1004,331,2016-01-09 16:20:18.24,-0.067,0.03,-1.014,42427421389.0,-0.061,3.963,-9.146
1005,332,2016-01-09 16:20:18.28,-0.072,0.026,-1.004,42462264462.0,0.366,2.866,-7.805
1006,333,2016-01-09 16:20:18.32,-0.073,0.032,-0.999,42523247639.0,-1.098,1.585,-7.927
1007,334,2016-01-09 16:20:18.35,-0.077,0.03,-1.015,,,,
1008,335,2016-01-09 16:20:18.40,-0.068,0.015,-1.031,42573396754.0,-1.951,-0.976,-10.671
1009,336,2016-01-09 16:20:18.44,-0.082,0.032,-1.04,42590364410.0,-0.976,-4.512,-8.963
1010,337,2016-01-09 16:20:18.47,-0.063,0.042,-0.977,42620403577.0,-0.732,-7.5,-6.951
1011,338,2016-01-09 16:20:18.52,-0.047,0.026,-0.974,42633448941.0,-1.098,-4.268,0.061
1012,339,2016-01-09 16:20:18.56,-0.063,0.035,-1.033,42669594097.0,-2.683,-2.134,7.988
1013,340,2016-01-09 16:20:18.59,-0.041,0.02,-1.034,,,,
1014,341,2016-01-09 16:20:18.64,0.012,0.024,-1.007,42720005139.0,-7.073,12.5,9.146
1015,342,2016-01-09 16:20:18.68,0.013,0.031,-1.001,42731668993.0,-11.524,18.415,9.939
1016,343,2016-01-09 16:20:18.71,0.012,0.064,-1.013,42767347431.0,-10.061,18.841,8.598
1017,344,2016-01-09 16:20:18.75,0.022,0.1,-0.991,42782093368.0,-7.5,26.829,5.183
1018,345,2016-01-09 16:20:18.79,0.035,0.101,-1.012,42816925296.0,-8.902,35.854,2.805
1019,346,2016-01-09 16:20:18.83,0.066,0.095,-1.009,42828705036.0,-6.89,32.988,-3.354
1020,347,2016-01-09 16:20:18.87,0.109,0.079,-1.01,42866233630.0,-5.793,33.963,-6.89
1021,348,2016-01-09 16:20:18.91,0.067,0.074,-1.003,42970639722.0,-4.451,23.902,-5.976
1022,349,2016-01-09 16:20:18.95,0.038,0.104,-1.037,42973353160.0,0.854,14.817,-4.085
1023,350,2016-01-09 16:20:18.99,0.089,0.095,-1.037,43000124462.0,2.195,9.207,-1.463
1024,351,2016-01-09 16:20:19.03,0.183,0.099,-1.041,43002792014.0,1.463,7.683,-0.183
1025,352,2016-01-09 16:20:19.07,0.182,0.05,-0.983,43049221858.0,-0.122,13.049,-5.366
1026,353,2016-01-09 16:20:19.11,0.077,0.015,-0.938,43051911077.0,0.0,19.451,-8.598
1027,354,2016-01-09 16:20:19.15,0.095,0.097,-0.969,43146508578.0,-0.244,22.5,-8.78
1028,355,2016-01-09 16:20:19.19,0.176,0.081,-0.986,43149223317.0,10.244,16.159,-11.585
1029,356,2016-01-09 16:20:19.23,0.201,0.031,-0.948,43198921546.0,15.732,17.073,-14.268
1030,357,2016-01-09 16:20:19.27,0.199,0.04,-0.957,43208065921.0,14.451,24.939,-10.793
1031,358,2016-01-09 16:20:19.31,0.239,0.038,-1.0,43255101807.0,14.39,21.585,-2.927
1032,359,2016-01-09 16:20:19.35,0.244,-0.002,-1.005,43266852067.0,15.122,25.915,-1.524
1033,360,2016-01-09 16:20:19.43,0.315,0.023,-1.003,43304707900.0,14.695,28.537,-4.39
1034,361,2016-01-09 16:20:19.47,0.278,-0.06,-0.935,43314844046.0,17.317,27.5,-10.854
1035,362,2016-01-09 16:20:19.51,0.274,-0.035,-0.92,43352669305.0,12.317,27.317,-8.293
1036,363,2016-01-09 16:20:19.55,0.306,-0.05,-0.913,43389454409.0,7.988,22.317,-6.707
1037,364,2016-01-09 16:20:19.59,0.294,-0.073,-0.896,43406475035.0,9.146,25.122,-9.146
1038,365,2016-01-09 16:20:19.63,0.32,-0.048,-0.91,43442317483.0,12.439,30.366,-5.793
1039,366,2016-01-09 16:20:19.67,0.321,-0.042,-0.944,43456464463.0,17.134,28.537,-2.195
1040,367,2016-01-09 16:20:19.71,0.32,-0.064,-0.905,43487495660.0,19.024,33.537,-1.707
1041,368,2016-01-09 16:20:19.75,0.331,-0.072,-0.903,43511390764.0,19.512,31.159,1.768
1042,369,2016-01-09 16:20:19.79,0.335,-0.085,-0.903,43536361962.0,19.085,24.268,5.976
1043,370,2016-01-09 16:20:19.83,0.401,-0.099,-0.872,43557365295.0,21.037,26.951,9.146
1044,371,2016-01-09 16:20:19.87,0.485,-0.135,-0.851,43584537379.0,20.671,23.11,10.793
1045,372,2016-01-09 16:20:19.91,0.532,-0.154,-0.85,43602754201.0,20.183,23.415,12.988
1046,373,2016-01-09 16:20:19.95,0.506,-0.162,-0.831,43633138004.0,20.427,30.793,14.451
1047,374,2016-01-09 16:20:19.99,0.449,-0.163,-0.807,43666293734.0,24.268,39.268,18.415
1048,375,2016-01-09 16:20:20.03,0.445,-0.208,-0.751,43697859931.0,26.28,41.768,17.134
1049,376,2016-01-09 16:20:20.07,0.508,-0.255,-0.729,43700549358.0,24.451,38.598,13.598
1050,377,2016-01-09 16:20:20.11,0.547,-0.221,-0.74,43728480296.0,22.927,27.561,11.28
1051,378,2016-01-09 16:20:20.14,0.586,-0.229,-0.737,,,,
1052,379,2016-01-09 16:20:20.19,0.616,-0.238,-0.745,43874577220.0,23.11,24.756,7.561
1053,380,2016-01-09 16:20:20.23,0.589,-0.274,-0.713,43878981284.0,18.598,23.476,6.098
1054,381,2016-01-09 16:20:20.27,0.581,-0.304,-0.657,43923461704.0,13.354,24.207,4.878
1055,382,2016-01-09 16:20:20.30,0.575,-0.289,-0.653,43951140816.0,7.622,20.61,2.561
1056,383,2016-01-09 16:20:20.34,0.588,-0.302,-0.648,43973502222.0,8.232,18.598,3.049
1057,384,2016-01-09 16:20:20.38,0.637,-0.329,-0.639,43987038993.0,8.171,15.0,5.061
1058,385,2016-01-09 16:20:20.42,0.628,-0.317,-0.627,44020909358.0,10.671,16.159,7.5
1059,386,2016-01-09 16:20:20.50,0.62,-0.327,-0.649,44025598420.0,14.329,18.11,10.061
1060,387,2016-01-09 16:20:20.54,0.609,-0.332,-0.632,44069756546.0,14.878,24.39,11.951
1061,388,2016-01-09 16:20:20.58,0.571,-0.345,-0.583,44074548473.0,15.183,22.195,10.549
1062,389,2016-01-09 16:20:20.62,0.612,-0.393,-0.579,44118417483.0,17.805,29.024,3.049
1063,390,2016-01-09 16:20:20.66,0.662,-0.381,-0.553,44122662118.0,12.134,25.122,-0.244
1064,391,2016-01-09 16:20:20.70,0.618,-0.367,-0.523,44167143993.0,6.28,16.22,-0.488
1065,392,2016-01-09 16:20:20.74,0.606,-0.39,-0.498,44171432431.0,6.22,16.707,-3.476
1066,393,2016-01-09 16:20:20.78,0.646,-0.416,-0.491,44217061441.0,6.646,13.293,-3.598
1067,394,2016-01-09 16:20:20.82,0.698,-0.406,-0.513,44235784670.0,6.951,4.451,-0.305
1068,395,2016-01-09 16:20:20.86,0.691,-0.405,-0.528,44275721025.0,7.805,2.622,2.927
1069,396,2016-01-09 16:20:20.90,0.721,-0.39,-0.526,44294460608.0,9.634,7.378,5.183
1070,397,2016-01-09 16:20:20.94,0.707,-0.365,-0.519,44320496545.0,10.671,11.524,2.317
1071,398,2016-01-09 16:20:20.98,0.687,-0.355,-0.495,44329983003.0,8.659,12.561,1.646
1072,399,2016-01-09 16:20:21.02,0.678,-0.391,-0.473,44362154253.0,5.671,11.707,-0.427
1073,400,2016-01-09 16:20:21.06,0.67,-0.396,-0.471,44366492274.0,1.89,10.854,-0.671
1074,401,2016-01-09 16:20:21.10,0.672,-0.4,-0.473,44410909983.0,0.244,6.951,-0.61
1075,402,2016-01-09 16:20:21.14,0.676,-0.404,-0.479,44415421130.0,1.28,4.573,-0.732
1076,403,2016-01-09 16:20:21.18,0.675,-0.411,-0.477,44462540815.0,1.28,1.707,-0.366
1077,404,2016-01-09 16:20:21.22,0.688,-0.403,-0.492,44465577378.0,0.61,0.854,0.671
1078,405,2016-01-09 16:20:21.26,0.666,-0.398,-0.502,44510618940.0,0.427,-1.159,0.549
1079,406,2016-01-09 16:20:21.30,0.686,-0.405,-0.503,44569259826.0,0.061,-1.098,-0.061
1080,407,2016-01-09 16:20:21.34,0.688,-0.403,-0.492,44588570972.0,-3.476,-2.744,-0.854
1081,408,2016-01-09 16:20:21.38,0.692,-0.406,-0.49,44616098108.0,-5.122,-2.195,-1.951
1082,409,2016-01-09 16:20:21.42,0.681,-0.401,-0.502,44625133420.0,-5.0,-2.439,-2.805
1083,410,2016-01-09 16:20:21.46,0.673,-0.39,-0.506,44666538733.0,-3.049,-2.744,-2.805
1084,411,2016-01-09 16:20:21.50,0.662,-0.392,-0.51,44753677586.0,-1.768,-1.768,-3.171
1085,412,2016-01-09 16:20:21.54,0.669,-0.391,-0.517,44777069046.0,-2.561,-2.622,-1.89
1086,413,2016-01-09 16:20:21.58,0.671,-0.396,-0.513,44811767848.0,-2.439,-3.841,-0.976
1087,414,2016-01-09 16:20:21.62,0.669,-0.39,-0.521,44832009098.0,-2.927,-3.049,0.0
1088,415,2016-01-09 16:20:21.66,0.682,-0.39,-0.518,44858954879.0,-2.683,-1.646,0.793
1089,416,2016-01-09 16:20:21.70,0.666,-0.413,-0.512,44861887796.0,-2.439,-0.732,-0.671
1090,417,2016-01-09 16:20:21.74,0.679,-0.401,-0.519,44898421337.0,-3.963,-0.549,-1.89
1091,418,2016-01-09 16:20:21.78,0.655,-0.381,-0.523,44902916649.0,-2.561,-2.073,-2.012
1092,419,2016-01-09 16:20:21.82,0.658,-0.384,-0.515,44947164982.0,1.829,-1.951,-1.707
1093,420,2016-01-09 16:20:21.86,0.656,-0.388,-0.512,44951576024.0,0.549,-1.463,-1.768
1094,421,2016-01-09 16:20:21.90,0.672,-0.388,-0.517,44995893107.0,-2.5,-1.28,-1.159
1095,422,2016-01-09 16:20:21.94,0.67,-0.384,-0.519,45000716441.0,-3.171,-1.524,-0.366
1096,423,2016-01-09 16:20:22.02,0.685,-0.39,-0.515,45044656078.0,-2.378,-1.585,0.488
1097,424,2016-01-09 16:20:22.06,0.676,-0.382,-0.511,45048902119.0,-2.988,-0.915,-0.305
1098,425,2016-01-09 16:20:22.10,0.681,-0.367,-0.512,45093397689.0,-4.878,-0.061,-0.488
1099,426,2016-01-09 16:20:22.14,0.656,-0.361,-0.511,45108425503.0,-6.037,-1.646,-0.122
1100,427,2016-01-09 16:20:22.17,0.67,-0.365,-0.516,45143639045.0,-7.378,-3.598,0.854
1101,428,2016-01-09 16:20:22.21,0.658,-0.364,-0.529,45161161024.0,-10.854,-6.28,2.622
1102,429,2016-01-09 16:20:22.25,0.654,-0.374,-0.541,,,,
1103,430,2016-01-09 16:20:22.29,0.63,-0.366,-0.571,45213123420.0,-15.488,-9.268,2.317
1104,431,2016-01-09 16:20:22.33,0.615,-0.344,-0.601,45247580972.0,-17.927,-11.22,-0.793
1105,432,2016-01-09 16:20:22.37,0.639,-0.344,-0.601,45260734462.0,-18.476,-14.939,-3.232
1106,433,2016-01-09 16:20:22.41,0.611,-0.359,-0.593,45290719305.0,-19.573,-19.878,-5.976
1107,434,2016-01-09 16:20:22.45,0.593,-0.329,-0.608,45309031128.0,-25.061,-23.537,-5.061
1108,435,2016-01-09 16:20:22.49,0.575,-0.316,-0.641,45388224670.0,-24.878,-26.585,-2.378
1109,436,2016-01-09 16:20:22.53,0.569,-0.313,-0.689,45414332275.0,-24.024,-27.012,-0.427
1110,437,2016-01-09 16:20:22.57,0.544,-0.317,-0.731,45448101806.0,-25.976,-27.683,-0.427
1111,438,2016-01-09 16:20:22.61,0.512,-0.282,-0.75,45462119201.0,-27.012,-27.134,-0.732
1112,439,2016-01-09 16:20:22.65,0.554,-0.24,-0.775,45483554409.0,-29.024,-29.512,-3.11
1113,440,2016-01-09 16:20:22.69,0.524,-0.25,-0.765,45488002222.0,-29.878,-33.354,-4.024
1114,441,2016-01-09 16:20:22.73,0.506,-0.262,-0.753,45532173262.0,-31.768,-20.183,-5.244
1115,442,2016-01-09 16:20:22.77,0.486,-0.218,-0.768,45536274877.0,-37.073,-10.061,-9.268
1116,443,2016-01-09 16:20:22.81,0.463,-0.179,-0.794,45681359096.0,-34.939,-13.049,-9.512
1117,444,2016-01-09 16:20:22.85,0.462,-0.141,-0.823,45689435346.0,-30.61,-11.829,-10.122
1118,445,2016-01-09 16:20:22.89,0.486,-0.115,-0.833,45737870712.0,-26.829,-11.524,-9.817
1119,446,2016-01-09 16:20:22.93,0.485,-0.108,-0.838,45739855243.0,-24.085,-13.293,-10.549
1120,447,2016-01-09 16:20:22.97,0.484,-0.09,-0.833,45779005555.0,-22.805,-12.195,-12.744
1121,448,2016-01-09 16:20:23.01,0.482,-0.075,-0.843,45781704982.0,-23.293,-11.707,-13.537
1122,449,2016-01-09 16:20:23.05,0.483,-0.056,-0.864,45827736388.0,-22.927,-12.134,-15.488
1123,450,2016-01-09 16:20:23.09,0.483,-0.066,-0.867,45830444617.0,-20.793,-11.463,-17.378
1124,451,2016-01-09 16:20:23.13,0.484,-0.05,-0.853,45876776128.0,-21.585,-13.72,-17.195
1125,452,2016-01-09 16:20:23.17,0.465,-0.045,-0.836,45879599826.0,-21.646,-17.5,-17.134
1126,453,2016-01-09 16:20:23.21,0.441,-0.023,-0.822,45980627795.0,-21.098,-18.293,-16.89
1127,454,2016-01-09 16:20:23.25,0.425,-0.007,-0.839,45990683785.0,-22.561,-19.207,-16.829
1128,455,2016-01-09 16:20:23.29,0.424,0.033,-0.869,46028267951.0,-21.768,-18.171,-15.122
1129,456,2016-01-09 16:20:23.33,0.407,0.05,-0.894,46036501389.0,-19.024,-16.341,-12.866
1130,457,2016-01-09 16:20:23.37,0.402,0.063,-0.899,46120212222.0,-17.317,-13.598,-11.829
1131,458,2016-01-09 16:20:23.41,0.397,0.081,-0.894,46185948732.0,-18.598,-12.256,-10.671
1132,459,2016-01-09 16:20:23.45,0.374,0.09,-0.881,46199769409.0,-21.037,-13.415,-10.671
1133,460,2016-01-09 16:20:23.53,0.361,0.139,-0.899,46230051023.0,-23.841,-11.768,-7.012
1134,461,2016-01-09 16:20:23.57,0.365,0.143,-0.908,46232713732.0,-23.902,-12.561,-7.439
1135,462,2016-01-09 16:20:23.61,0.367,0.17,-0.918,46266473732.0,-20.61,-7.134,-6.585
1136,463,2016-01-09 16:20:23.65,0.355,0.178,-0.919,46269265138.0,-18.841,-7.744,-6.098
1137,464,2016-01-09 16:20:23.69,0.341,0.203,-0.925,46315293315.0,-18.354,-6.585,-5.976
1138,465,2016-01-09 16:20:23.72,0.335,0.201,-0.926,46317990138.0,-15.366,-4.756,-5.244
1139,466,2016-01-09 16:20:23.77,0.336,0.218,-0.931,46363886491.0,-11.707,-4.207,-2.683
1140,467,2016-01-09 16:20:23.81,0.339,0.213,-0.905,46366659773.0,-10.915,-4.634,-2.744
1141,468,2016-01-09 16:20:23.85,0.336,0.208,-0.9,46412736752.0,-8.78,-1.098,-1.951
1142,469,2016-01-09 16:20:23.89,0.334,0.186,-0.886,46415451545.0,-6.768,0.732,-0.976
1143,470,2016-01-09 16:20:23.93,0.36,0.195,-0.899,46467081337.0,-4.634,0.305,1.524
1144,471,2016-01-09 16:20:23.96,0.364,0.175,-0.912,46476311441.0,-3.72,-1.037,3.232
1145,472,2016-01-09 16:20:24.00,0.364,0.192,-0.93,46523838159.0,-2.439,0.732,3.841
1146,473,2016-01-09 16:20:24.04,0.366,0.188,-0.91,46534696337.0,-1.22,-0.305,3.476
1147,474,2016-01-09 16:20:24.08,0.365,0.195,-0.912,46572486649.0,-0.244,1.524,3.171
1148,475,2016-01-09 16:20:24.12,0.356,0.185,-0.895,46657045398.0,0.305,3.841,-0.244
1149,476,2016-01-09 16:20:24.16,0.357,0.181,-0.893,46659808992.0,0.061,5.122,-1.951
1150,477,2016-01-09 16:20:24.20,0.354,0.18,-0.906,46753859512.0,-0.549,3.171,-1.707
1151,478,2016-01-09 16:20:24.24,0.346,0.18,-0.91,46756891180.0,-0.305,3.72,-0.183
1152,479,2016-01-09 16:20:24.28,0.338,0.193,-0.95,46802661545.0,-0.61,3.171,0.488
1153,480,2016-01-09 16:20:24.32,0.36,0.183,-0.93,46814872483.0,-0.488,4.573,-1.463
1154,481,2016-01-09 16:20:24.36,0.396,0.168,-0.919,46867399148.0,0.549,5.122,1.524
1155,482,2016-01-09 16:20:24.40,0.383,0.202,-0.894,46881163680.0,-0.854,5.122,7.378
1156,483,2016-01-09 16:20:24.44,0.382,0.202,-0.879,46922846544.0,-0.793,7.866,9.024
1157,484,2016-01-09 16:20:24.48,0.405,0.184,-0.87,46949168888.0,0.549,10.671,13.293
1158,485,2016-01-09 16:20:24.52,0.47,0.228,-0.898,46960635242.0,7.866,14.268,22.683
1159,486,2016-01-09 16:20:24.56,0.527,0.173,-0.869,46994681961.0,13.902,23.537,26.524
1160,487,2016-01-09 16:20:24.60,0.529,0.149,-0.868,46998916440.0,14.024,31.341,21.89
1161,488,2016-01-09 16:20:24.64,0.475,0.119,-0.806,47043438055.0,12.256,40.549,22.317
1162,489,2016-01-09 16:20:24.68,0.485,0.065,-0.756,47095195657.0,14.146,46.768,18.354
1163,490,2016-01-09 16:20:24.72,0.46,0.079,-0.791,47098088783.0,6.098,46.585,18.72
1164,491,2016-01-09 16:20:24.76,0.555,-0.01,-0.757,47143869722.0,6.707,35.671,16.768
1165,492,2016-01-09 16:20:24.80,0.592,-0.039,-0.726,47146950661.0,8.232,24.817,11.707
1166,493,2016-01-09 16:20:24.84,0.557,0.009,-0.77,47200391804.0,7.988,18.049,4.329
1167,494,2016-01-09 16:20:24.88,0.493,0.024,-0.787,47216339149.0,10.854,18.11,5.488
1168,495,2016-01-09 16:20:24.92,0.547,0.039,-0.747,47258559826.0,11.951,19.634,10.366
1169,496,2016-01-09 16:20:24.96,0.52,0.052,-0.788,47274977274.0,5.061,9.695,11.28
1170,497,2016-01-09 16:20:25.04,0.657,0.007,-0.767,47307321128.0,0.549,17.378,18.659
1171,498,2016-01-09 16:20:25.08,0.678,0.02,-0.729,47309973628.0,0.122,18.415,13.293
1172,499,2016-01-09 16:20:25.12,0.628,0.015,-0.681,47387660450.0,-13.659,27.012,10.671
1173,500,2016-01-09 16:20:25.16,0.606,-0.014,-0.619,47390377638.0,-12.195,21.22,8.11
1174,501,2016-01-09 16:20:25.20,0.632,-0.021,-0.617,47436711649.0,-15.183,20.122,5.976
1175,502,2016-01-09 16:20:25.24,0.654,0.019,-0.649,47439448315.0,-12.805,14.146,3.598
1176,503,2016-01-09 16:20:25.28,0.72,-0.002,-0.669,47485324515.0,-7.134,14.756,5.671
1177,504,2016-01-09 16:20:25.32,0.7,-0.01,-0.675,47488078994.0,-1.402,14.024,6.098
1178,505,2016-01-09 16:20:25.36,0.717,-0.01,-0.654,47543207639.0,3.049,13.537,5.976
1179,506,2016-01-09 16:20:25.40,0.618,-0.052,-0.647,47680449825.0,5.976,13.537,6.768
1180,507,2016-01-09 16:20:25.44,0.695,-0.065,-0.615,47698386648.0,9.756,9.756,9.817
1181,508,2016-01-09 16:20:25.48,0.724,-0.06,-0.603,47774776179.0,13.232,11.402,12.012
1182,509,2016-01-09 16:20:25.52,0.732,-0.059,-0.609,47779152689.0,29.268,23.11,3.659
1183,510,2016-01-09 16:20:25.56,0.706,-0.054,-0.57,47823444824.0,41.402,27.439,-0.793
1184,511,2016-01-09 16:20:25.59,0.7,-0.07,-0.567,47828174565.0,40.305,20.305,3.72
1185,512,2016-01-09 16:20:25.63,0.689,-0.127,-0.552,,,,
1186,513,2016-01-09 16:20:25.68,0.744,-0.147,-0.588,47876851910.0,34.573,12.195,3.354
1187,514,2016-01-09 16:20:25.71,0.751,-0.192,-0.569,47920965345.0,33.598,8.171,4.207
1188,515,2016-01-09 16:20:25.75,0.72,-0.217,-0.573,47930267012.0,34.085,5.366,1.341
1189,516,2016-01-09 16:20:25.79,0.71,-0.214,-0.572,47971032898.0,34.451,9.268,0.671
1190,517,2016-01-09 16:20:25.83,0.726,-0.22,-0.55,47991617481.0,36.341,8.354,-1.28
1191,518,2016-01-09 16:20:25.87,0.709,-0.243,-0.537,48021207065.0,35.976,4.634,-2.561
1192,519,2016-01-09 16:20:25.91,0.737,-0.223,-0.516,48033722065.0,35.61,3.598,-2.988
1193,520,2016-01-09 16:20:25.95,0.725,-0.214,-0.521,48072247532.0,31.951,9.817,-2.744
1194,521,2016-01-09 16:20:25.99,0.698,-0.276,-0.5,48083265762.0,29.695,8.415,-0.305
1195,522,2016-01-09 16:20:26.03,0.736,-0.228,-0.508,48121616856.0,25.183,6.22,3.598
1196,523,2016-01-09 16:20:26.07,0.705,-0.242,-0.546,48132954825.0,19.878,3.902,2.073
1197,524,2016-01-09 16:20:26.11,0.752,-0.279,-0.489,48176754200.0,20.122,6.89,3.232
1198,525,2016-01-09 16:20:26.15,0.751,-0.234,-0.485,48188778991.0,15.488,2.012,4.207
1199,526,2016-01-09 16:20:26.19,0.727,-0.213,-0.51,48228058732.0,16.768,-0.793,7.317
1200,527,2016-01-09 16:20:26.23,0.736,-0.294,-0.51,48241021127.0,15.549,-2.744,7.683
1201,528,2016-01-09 16:20:26.27,0.772,-0.258,-0.513,48276400502.0,13.171,-0.976,8.232
1202,529,2016-01-09 16:20:26.31,0.707,-0.311,-0.506,48289758939.0,11.646,0.793,7.561
1203,530,2016-01-09 16:20:26.35,0.771,-0.322,-0.479,48325619305.0,13.049,2.134,10.122
1204,531,2016-01-09 16:20:26.39,0.726,-0.317,-0.455,48339091648.0,11.585,-0.061,9.268
1205,532,2016-01-09 16:20:26.43,0.741,-0.335,-0.472,48427600555.0,19.39,2.744,7.073
1206,533,2016-01-09 16:20:26.47,0.732,-0.373,-0.433,48441483211.0,19.756,4.329,8.11
1207,534,2016-01-09 16:20:26.55,0.728,-0.388,-0.433,48476953732.0,22.439,7.012,5.488
1208,535,2016-01-09 16:20:26.59,0.717,-0.43,-0.395,48492482742.0,22.805,8.354,8.11
1209,536,2016-01-09 16:20:26.63,0.769,-0.443,-0.377,48519157117.0,23.963,12.134,4.939
1210,537,2016-01-09 16:20:26.67,0.771,-0.422,-0.358,48520703054.0,25.915,14.146,2.561
1211,538,2016-01-09 16:20:26.71,0.743,-0.43,-0.352,48652203367.0,25.061,13.293,3.232
1212,539,2016-01-09 16:20:26.75,0.76,-0.422,-0.331,48656876337.0,22.5,16.037,6.707
1213,540,2016-01-09 16:20:26.79,0.763,-0.428,-0.307,48700947115.0,20.732,16.22,7.866
1214,541,2016-01-09 16:20:26.83,0.742,-0.44,-0.295,48705637220.0,20.671,16.951,9.39
1215,542,2016-01-09 16:20:26.87,0.726,-0.457,-0.272,48798470032.0,17.988,19.268,10.427
1216,543,2016-01-09 16:20:26.91,0.755,-0.48,-0.245,48802823521.0,16.037,22.5,8.171
1217,544,2016-01-09 16:20:26.95,0.743,-0.478,-0.229,48849636075.0,13.476,19.634,6.585
1218,545,2016-01-09 16:20:26.99,0.761,-0.5,-0.227,48874820607.0,12.256,16.22,6.341
1219,546,2016-01-09 16:20:27.03,0.759,-0.501,-0.218,48908382898.0,11.159,16.463,7.805
1220,547,2016-01-09 16:20:27.07,0.744,-0.501,-0.199,48911582325.0,9.634,15.122,7.073
1221,548,2016-01-09 16:20:27.11,0.756,-0.487,-0.199,48944766543.0,9.451,16.463,7.683
1222,549,2016-01-09 16:20:27.15,0.739,-0.48,-0.186,48949508314.0,8.537,16.646,6.646
1223,550,2016-01-09 16:20:27.18,0.744,-0.5,-0.164,,,,
1224,551,2016-01-09 16:20:27.23,0.74,-0.502,-0.146,48997999354.0,3.841,16.098,5.244
1225,552,2016-01-09 16:20:27.27,0.759,-0.504,-0.155,49042224411.0,2.622,12.683,4.512
1226,553,2016-01-09 16:20:27.31,0.759,-0.514,-0.152,49046881390.0,1.707,9.39,1.707
1227,554,2016-01-09 16:20:27.34,0.776,-0.518,-0.147,49090955187.0,1.524,4.756,0.488
1228,555,2016-01-09 16:20:27.39,0.736,-0.513,-0.138,49095549614.0,-1.402,4.268,-2.256
1229,556,2016-01-09 16:20:27.42,0.746,-0.513,-0.138,,,,
1230,557,2016-01-09 16:20:27.47,0.747,-0.506,-0.144,49146069046.0,-3.171,0.0,-3.72
1231,558,2016-01-09 16:20:27.51,0.743,-0.508,-0.154,49193161385.0,-3.78,-2.622,-4.573
1232,559,2016-01-09 16:20:27.54,0.743,-0.525,-0.155,49211971804.0,-5.366,-2.683,-5.0
1233,560,2016-01-09 16:20:27.58,0.794,-0.499,-0.177,49240368940.0,-7.012,-3.415,-4.207
1234,561,2016-01-09 16:20:27.62,0.774,-0.495,-0.17,49262767690.0,-8.11,-5.915,-6.28
1235,562,2016-01-09 16:20:27.66,0.76,-0.498,-0.18,49296060398.0,-8.537,-5.244,-6.402
1236,563,2016-01-09 16:20:27.70,0.729,-0.483,-0.203,49313478002.0,-9.573,-6.768,-6.037
1237,564,2016-01-09 16:20:27.74,0.714,-0.495,-0.205,49354999513.0,-10.427,-6.585,-4.817
1238,565,2016-01-09 16:20:27.78,0.772,-0.469,-0.214,49371387481.0,-12.134,-6.585,-1.89
1239,566,2016-01-09 16:20:27.82,0.727,-0.486,-0.226,49398456284.0,-12.378,-7.927,-2.866
1240,567,2016-01-09 16:20:27.86,0.757,-0.466,-0.247,49399956127.0,-11.585,-4.878,0.366
1241,568,2016-01-09 16:20:27.90,0.762,-0.458,-0.263,49435130293.0,-10.183,-5.366,-0.122
1242,569,2016-01-09 16:20:27.94,0.757,-0.458,-0.25,49437877168.0,-9.451,-4.085,-2.927
1243,570,2016-01-09 16:20:27.98,0.765,-0.458,-0.261,49581433835.0,-11.646,-3.659,-1.707
1244,571,2016-01-09 16:20:28.02,0.724,-0.465,-0.26,49584551961.0,-13.415,-3.902,-3.72
1245,572,2016-01-09 16:20:28.06,0.733,-0.472,-0.252,49630354200.0,-16.585,-3.902,-3.354
1246,573,2016-01-09 16:20:28.10,0.74,-0.44,-0.289,49633168367.0,-17.805,-7.195,-4.146
1247,574,2016-01-09 16:20:28.14,0.704,-0.456,-0.32,49693900397.0,-14.756,-9.39,-8.537
1248,575,2016-01-09 16:20:28.18,0.729,-0.435,-0.349,49710643365.0,-12.683,-8.902,-10.915
1249,576,2016-01-09 16:20:28.22,0.706,-0.421,-0.372,49746652688.0,-13.659,-18.171,-14.146
1250,577,2016-01-09 16:20:28.26,0.7,-0.439,-0.367,49763145761.0,-15.732,-29.756,-12.744
1251,578,2016-01-09 16:20:28.30,0.759,-0.426,-0.39,49822215032.0,-16.89,-32.256,-12.195
1252,579,2016-01-09 16:20:28.34,0.752,-0.391,-0.408,49826595919.0,-18.232,-34.207,-14.512
1253,580,2016-01-09 16:20:28.38,0.759,-0.384,-0.451,49870986595.0,-15.976,-35.732,-12.988
1254,581,2016-01-09 16:20:28.42,0.729,-0.362,-0.503,49875762221.0,-15.427,-31.463,-17.012
1255,582,2016-01-09 16:20:28.46,0.729,-0.384,-0.488,49919720554.0,-15.244,-29.817,-21.89
1256,583,2016-01-09 16:20:28.50,0.711,-0.34,-0.529,49924440241.0,-14.085,-30.305,-22.927
1257,584,2016-01-09 16:20:28.54,0.676,-0.316,-0.563,49968492272.0,-15.488,-33.841,-25.183
1258,585,2016-01-09 16:20:28.58,0.635,-0.322,-0.558,49972896803.0,-17.988,-33.11,-26.28
1259,586,2016-01-09 16:20:28.62,0.611,-0.269,-0.581,50018688158.0,-18.476,-33.11,-26.159
1260,587,2016-01-09 16:20:28.66,0.63,-0.221,-0.61,50033560762.0,-18.841,-33.78,-24.634
1261,588,2016-01-09 16:20:28.70,0.639,-0.242,-0.607,50068279669.0,-21.524,-33.537,-20.671
1262,589,2016-01-09 16:20:28.74,0.639,-0.2,-0.604,50087883315.0,-23.902,-33.293,-14.329
1263,590,2016-01-09 16:20:28.78,0.658,-0.181,-0.646,50121162532.0,-22.927,-30.732,-10.671
1264,591,2016-01-09 16:20:28.82,0.683,-0.153,-0.687,50137007116.0,-15.427,-27.805,-15.427
1265,592,2016-01-09 16:20:28.86,0.687,-0.142,-0.69,50165828313.0,-10.854,-30.61,-12.561
1266,593,2016-01-09 16:20:28.94,0.582,-0.14,-0.716,50184829876.0,-12.5,-35.854,2.012
1267,594,2016-01-09 16:20:28.97,0.618,-0.137,-0.748,50218721335.0,-16.341,-20.549,-4.207
1268,595,2016-01-09 16:20:29.02,0.594,-0.142,-0.784,50232743991.0,-23.415,-22.317,-9.756
1269,596,2016-01-09 16:20:29.06,0.536,-0.069,-0.782,50263291074.0,-17.622,-15.793,-10.793
1270,597,2016-01-09 16:20:29.10,0.521,-0.059,-0.788,50282251022.0,-20.671,-24.329,-12.805
1271,598,2016-01-09 16:20:29.14,0.515,-0.04,-0.785,50311949355.0,-29.085,-26.341,-10.0
1272,599,2016-01-09 16:20:29.17,0.472,-0.052,-0.78,50330990345.0,-32.683,-25.183,-14.146
1273,600,2016-01-09 16:20:29.21,0.526,0.024,-0.827,50367820658.0,-36.098,-27.866,-16.402
1274,601,2016-01-09 16:20:29.25,0.437,0.023,-0.841,,,,
1275,602,2016-01-09 16:20:29.29,0.45,0.033,-0.856,50473688418.0,-24.939,-30.793,-12.683
1276,603,2016-01-09 16:20:29.33,0.446,0.051,-0.853,50507898314.0,-28.476,-35.671,-3.171
1277,604,2016-01-09 16:20:29.37,0.445,0.061,-0.872,50532865866.0,-27.866,-32.317,-0.488
1278,605,2016-01-09 16:20:29.41,0.391,0.045,-0.881,50556751595.0,-32.5,-25.305,-5.366
1279,606,2016-01-09 16:20:29.45,0.422,0.08,-0.899,50571202428.0,-30.915,-20.183,-3.78
1280,607,2016-01-09 16:20:29.49,0.407,0.078,-0.919,50602236438.0,-27.5,-18.963,-7.622
1281,608,2016-01-09 16:20:29.53,0.412,0.129,-0.944,50606564252.0,-24.878,-18.598,-8.72
1282,609,2016-01-09 16:20:29.57,0.375,0.131,-0.941,50650997168.0,-19.695,-20.366,-6.524
1283,610,2016-01-09 16:20:29.61,0.361,0.157,-0.927,50655576700.0,-18.293,-19.207,-5.183
1284,611,2016-01-09 16:20:29.65,0.324,0.142,-0.921,50699721699.0,-17.622,-15.915,-5.183
1285,612,2016-01-09 16:20:29.69,0.343,0.168,-0.912,50704082064.0,-20.244,-13.049,-1.707
1286,613,2016-01-09 16:20:29.73,0.327,0.182,-0.919,50748480917.0,-20.976,-8.659,-3.232
1287,614,2016-01-09 16:20:29.77,0.322,0.196,-0.917,50752731178.0,-17.866,-8.72,-2.561
1288,615,2016-01-09 16:20:29.81,0.316,0.198,-0.914,50802243210.0,-12.866,-8.354,-1.341
1289,616,2016-01-09 16:20:29.85,0.321,0.213,-0.911,50811350449.0,-10.061,-8.171,0.549
1290,617,2016-01-09 16:20:29.89,0.325,0.188,-0.902,50847448679.0,-6.951,-4.817,2.927
1291,618,2016-01-09 16:20:29.93,0.372,0.198,-0.917,50861527949.0,-5.61,-5.488,7.256
1292,619,2016-01-09 16:20:30.01,0.353,0.181,-0.921,50901093730.0,-3.72,-1.402,8.049
1293,620,2016-01-09 16:20:30.05,0.353,0.17,-0.928,50914670865.0,-1.951,1.28,5.244
1294,621,2016-01-09 16:20:30.09,0.325,0.165,-0.919,50945957011.0,1.28,1.22,4.695
1295,622,2016-01-09 16:20:30.13,0.319,0.154,-0.905,50966660240.0,3.963,2.195,3.659
1296,623,2016-01-09 16:20:30.17,0.332,0.155,-0.913,50994680605.0,3.232,0.671,2.5
1297,624,2016-01-09 16:20:30.21,0.353,0.15,-0.908,51013957948.0,2.561,1.463,0.793
1298,625,2016-01-09 16:20:30.25,0.353,0.148,-0.907,51043243209.0,2.256,2.256,0.976
1299,626,2016-01-09 16:20:30.29,0.347,0.147,-0.917,51062283261.0,1.463,0.366,-0.915
1300,627,2016-01-09 16:20:30.33,0.345,0.158,-0.907,51096518938.0,1.463,1.829,-2.134
1301,628,2016-01-09 16:20:30.37,0.341,0.144,-0.892,51110811907.0,1.22,1.524,-1.159
1302,629,2016-01-09 16:20:30.41,0.338,0.163,-0.9,51141300188.0,0.671,-0.244,-1.89
1303,630,2016-01-09 16:20:30.45,0.336,0.159,-0.915,51161447219.0,-0.976,0.427,-2.805
1304,631,2016-01-09 16:20:30.49,0.34,0.162,-0.918,51194646959.0,-1.463,-0.244,-1.646
1305,632,2016-01-09 16:20:30.53,0.342,0.169,-0.927,51209042115.0,-0.915,-2.256,-0.305
1306,633,2016-01-09 16:20:30.57,0.336,0.176,-0.938,51343744095.0,-0.122,-2.317,0.122
1307,634,2016-01-09 16:20:30.61,0.352,0.184,-0.948,51362920709.0,0.671,-0.915,-2.195
1308,635,2016-01-09 16:20:30.65,0.387,0.191,-0.958,51385856908.0,0.549,0.854,-3.902
1309,636,2016-01-09 16:20:30.69,0.413,0.207,-0.972,51392999720.0,2.744,2.988,-7.317
1310,637,2016-01-09 16:20:30.73,0.272,0.099,-0.999,51430985552.0,5.122,6.037,-10.122
1311,638,2016-01-09 16:20:30.77,0.384,0.078,-1.034,51435493157.0,7.073,13.537,5.61
1312,639,2016-01-09 16:20:30.81,0.453,0.11,-1.103,51479738210.0,13.902,19.695,12.866
1313,640,2016-01-09 16:20:30.85,0.505,0.022,-1.174,51484392168.0,28.72,37.5,14.146
1314,641,2016-01-09 16:20:30.89,0.665,-0.132,-1.044,51528457741.0,45.122,47.927,20.427
1315,642,2016-01-09 16:20:30.93,0.554,-0.071,-0.916,51532766543.0,59.939,81.707,18.11
1316,643,2016-01-09 16:20:30.96,0.547,0.047,-0.587,51578830968.0,83.72,134.329,24.817
1317,644,2016-01-09 16:20:31.00,0.501,0.159,-0.432,51581831697.0,98.902,158.841,29.817
1318,645,2016-01-09 16:20:31.00,0.501,0.159,-0.432,52271142480.0,-6.89,-15.549,-4.329
1319,646,2016-01-09 16:20:31.00,0.303,-0.124,-1.01,51581831697.0,98.902,158.841,29.817
1320,647,2016-01-09 16:20:31.00,0.303,-0.124,-1.01,52271142480.0,-6.89,-15.549,-4.329
1321,648,2016-01-09 16:20:31.04,0.433,-0.014,-0.306,51628873107.0,110.0,155.976,41.829
1322,649,2016-01-09 16:20:31.08,0.698,-0.233,-0.265,,,,
1323,650,2016-01-09 16:20:31.12,0.713,-0.238,-0.126,51677664510.0,69.756,151.524,48.293
1324,651,2016-01-09 16:20:31.16,0.845,-0.118,-0.105,51680457115.0,64.573,151.89,43.841
1325,652,2016-01-09 16:20:31.20,0.78,-0.362,-0.067,51732383053.0,39.512,120.244,28.659
1326,653,2016-01-09 16:20:31.24,0.812,-0.5,0.029,51739813470.0,20.427,87.622,22.378
1327,654,2016-01-09 16:20:31.28,0.864,-0.47,0.021,51786900969.0,8.78,56.159,13.72
1328,655,2016-01-09 16:20:31.32,0.83,-0.516,0.031,51796890501.0,8.476,32.561,10.854
1329,656,2016-01-09 16:20:31.36,0.786,-0.44,0.005,51838041073.0,10.0,20.976,8.659
1330,657,2016-01-09 16:20:31.40,0.8,-0.388,-0.027,51851452427.0,11.037,6.159,7.439
1331,658,2016-01-09 16:20:31.44,0.837,-0.394,-0.035,51884628781.0,18.537,0.122,5.183
1332,659,2016-01-09 16:20:31.52,0.756,-0.475,-0.032,51894855917.0,10.854,-6.768,3.476
1333,660,2016-01-09 16:20:31.56,0.813,-0.45,-0.019,51932769510.0,6.829,-3.415,-0.427
1334,661,2016-01-09 16:20:31.60,0.54,-0.364,0.017,51946480969.0,-12.622,-12.988,-18.598
1335,662,2016-01-09 16:20:31.64,0.038,-0.19,-0.07,51981972114.0,-18.293,-9.329,-40.183
1336,663,2016-01-09 16:20:31.68,-0.038,-0.073,-0.819,51992258260.0,-45.976,-70.305,-63.963
1337,664,2016-01-09 16:20:31.72,0.76,0.032,-1.257,52030760396.0,-96.341,-214.512,-40.671
1338,665,2016-01-09 16:20:31.76,1.364,-0.481,-1.009,52041064510.0,-99.024,-314.451,-13.049
1339,666,2016-01-09 16:20:31.80,1.373,-0.661,-0.855,52079698729.0,-65.854,-284.207,-13.049
1340,667,2016-01-09 16:20:31.84,0.556,-0.092,-0.94,52092024875.0,-40.061,-228.293,-4.756
1341,668,2016-01-09 16:20:31.88,0.217,0.026,-0.799,52213069979.0,-38.72,-112.195,-35.244
1342,669,2016-01-09 16:20:31.92,0.121,-0.135,-0.907,52236539199.0,-50.732,-37.439,-42.195
1343,670,2016-01-09 16:20:31.96,0.195,0.046,-0.963,52262997688.0,-20.427,-34.268,3.293
1344,671,2016-01-09 16:20:32.04,0.295,-0.115,-1.004,52308483104.0,-17.805,-13.72,-13.415
1345,672,2016-01-09 16:20:32.08,0.315,-0.099,-0.939,52312840292.0,-22.378,-7.378,-4.756
1346,673,2016-01-09 16:20:32.12,0.25,-0.136,-0.926,52357253573.0,-20.976,-20.427,1.037
1347,674,2016-01-09 16:20:32.16,0.335,-0.113,-0.927,52361670083.0,-15.366,-16.89,1.159
1348,675,2016-01-09 16:20:32.20,0.315,-0.104,-0.921,52405952949.0,-11.098,-8.841,3.232
1349,676,2016-01-09 16:20:32.24,0.314,-0.063,-0.899,52410392115.0,-1.585,-1.22,1.585
1350,677,2016-01-09 16:20:32.28,0.333,-0.077,-0.929,52454745605.0,2.988,6.28,2.561
1351,678,2016-01-09 16:20:32.32,0.367,-0.05,-0.936,52459173990.0,4.939,4.329,5.61
1352,679,2016-01-09 16:20:32.36,0.345,-0.071,-0.917,52503515448.0,6.89,10.0,4.39
1353,680,2016-01-09 16:20:32.40,0.346,-0.077,-0.892,52517333626.0,3.476,11.585,6.707
1354,681,2016-01-09 16:20:32.44,0.352,-0.095,-0.902,52553708574.0,2.378,9.695,4.573
1355,682,2016-01-09 16:20:32.48,0.386,-0.082,-0.914,52578418783.0,2.744,7.378,3.11
1356,683,2016-01-09 16:20:32.52,0.366,-0.097,-0.913,52609033469.0,3.415,7.378,1.707
1357,684,2016-01-09 16:20:32.56,0.363,-0.116,-0.915,52621442896.0,2.5,3.78,1.524
1358,685,2016-01-09 16:20:32.59,0.365,-0.12,-0.898,52658408313.0,0.488,3.598,-1.159
1359,686,2016-01-09 16:20:32.64,0.406,-0.113,-0.913,52672444667.0,-2.866,2.256,-0.488
1360,687,2016-01-09 16:20:32.68,0.402,-0.124,-0.93,52712642062.0,-3.72,1.098,0.854
1361,688,2016-01-09 16:20:32.71,0.552,-0.09,-0.976,52725306125.0,-5.183,4.573,5.244
1362,689,2016-01-09 16:20:32.76,0.579,-0.094,-1.092,52763130031.0,-9.39,8.72,6.951
1363,690,2016-01-09 16:20:32.79,0.275,-0.108,-0.956,52778352427.0,-13.659,31.28,1.22
1364,691,2016-01-09 16:20:32.83,0.212,-0.207,-0.809,52810875187.0,-32.256,54.756,0.976
1365,692,2016-01-09 16:20:32.87,0.237,-0.12,-0.828,52823122114.0,-65.732,24.573,-20.488
1366,693,2016-01-09 16:20:32.91,0.317,-0.029,-0.8,52861282114.0,-73.171,-0.427,-29.878
1367,694,2016-01-09 16:20:32.95,0.368,0.119,-0.82,52872042948.0,-74.451,-39.695,-21.829
1368,695,2016-01-09 16:20:33.03,0.187,0.219,-0.894,52908855865.0,-67.317,-55.305,-11.951
1369,696,2016-01-09 16:20:33.07,0.236,0.221,-0.879,52921192219.0,-58.415,-45.732,1.22
1370,697,2016-01-09 16:20:33.11,0.15,0.31,-0.855,52960628416.0,-36.89,-57.622,5.0
1371,698,2016-01-09 16:20:33.15,0.192,0.354,-0.846,52971875708.0,-17.927,-38.841,8.902
1372,699,2016-01-09 16:20:33.19,0.116,0.268,-0.876,53109468730.0,-9.329,-30.305,5.061
1373,700,2016-01-09 16:20:33.23,0.081,0.286,-0.95,53123876959.0,7.5,-31.037,5.976
1374,701,2016-01-09 16:20:33.27,0.035,0.245,-0.974,53157818990.0,17.988,-39.146,0.61
1375,702,2016-01-09 16:20:33.31,0.094,0.198,-1.106,53160725605.0,26.28,-43.415,5.0
1376,703,2016-01-09 16:20:33.35,0.234,0.051,-1.033,53189044666.0,39.939,-45.0,6.646
1377,704,2016-01-09 16:20:33.39,0.275,0.044,-1.132,53191901854.0,43.659,-32.378,-9.451
1378,705,2016-01-09 16:20:33.43,-0.134,0.044,-1.05,53237635083.0,51.707,-14.451,-17.195
1379,706,2016-01-09 16:20:33.47,-0.067,-0.07,-1.016,53240403833.0,58.598,17.744,-17.439
1380,707,2016-01-09 16:20:33.51,0.291,-0.041,-1.129,53286728626.0,44.329,-23.963,-19.695
1381,708,2016-01-09 16:20:33.55,0.176,-0.098,-1.172,53289523366.0,57.561,-21.707,-32.927
1382,709,2016-01-09 16:20:33.59,0.094,-0.17,-1.083,53335548053.0,55.305,2.012,-31.646
1383,710,2016-01-09 16:20:33.63,0.079,-0.171,-0.949,53338361074.0,46.341,11.341,-25.732
1384,711,2016-01-09 16:20:33.67,0.085,-0.137,-0.905,53383917949.0,45.61,15.549,-20.549
1385,712,2016-01-09 16:20:33.71,0.147,-0.157,-0.9,53393354772.0,36.341,21.768,-15.122
1386,713,2016-01-09 16:20:33.75,0.168,-0.177,-0.871,53443900916.0,32.866,18.963,-12.012
1387,714,2016-01-09 16:20:33.79,0.228,-0.155,-0.885,53457358574.0,30.793,23.537,-9.695
1388,715,2016-01-09 16:20:33.83,0.201,-0.146,-0.884,53493728156.0,26.22,18.963,-9.085
1389,716,2016-01-09 16:20:33.87,0.215,-0.156,-0.951,53504008417.0,23.049,22.805,-6.951
1390,717,2016-01-09 16:20:33.91,0.226,-0.196,-0.953,53541985812.0,16.646,19.573,-6.22
1391,718,2016-01-09 16:20:33.95,0.246,-0.208,-0.953,53554259823.0,12.622,15.671,-3.78
1392,719,2016-01-09 16:20:33.99,0.261,-0.224,-0.936,53591241281.0,5.183,4.817,0.854
1393,720,2016-01-09 16:20:34.03,0.227,-0.213,-0.938,53601876698.0,0.0,2.195,3.902
1394,721,2016-01-09 16:20:34.07,0.228,-0.199,-0.931,53657063521.0,-4.329,2.5,3.537
1395,722,2016-01-09 16:20:34.11,0.216,-0.205,-0.926,53671786906.0,-7.744,3.049,4.695
1396,723,2016-01-09 16:20:34.15,0.24,-0.212,-0.925,53688976177.0,-7.622,3.902,8.841
1397,724,2016-01-09 16:20:34.19,0.239,-0.187,-0.941,53691886229.0,-6.707,5.793,12.805
1398,725,2016-01-09 16:20:34.23,0.231,-0.187,-0.963,53725305761.0,-6.585,4.939,15.732
1399,726,2016-01-09 16:20:34.27,0.233,-0.209,-0.964,53771083157.0,-5.793,5.305,21.22
1400,727,2016-01-09 16:20:34.31,0.223,-0.21,-0.971,53775668678.0,-5.793,5.732,22.622
1401,728,2016-01-09 16:20:34.35,0.229,-0.198,-0.954,53819774354.0,-5.549,11.28,27.805
1402,729,2016-01-09 16:20:34.39,0.243,-0.218,-0.935,53824241542.0,-2.195,16.89,30.671
1403,730,2016-01-09 16:20:34.42,0.249,-0.205,-0.937,53868441907.0,-5.305,18.476,35.61
1404,731,2016-01-09 16:20:34.47,0.271,-0.192,-0.907,53987662271.0,-5.244,24.817,38.72
1405,732,2016-01-09 16:20:34.55,0.293,-0.211,-0.937,54001859771.0,-6.341,27.988,35.61
1406,733,2016-01-09 16:20:34.58,0.252,-0.226,-0.916,54035231126.0,-10.915,27.683,34.451
1407,734,2016-01-09 16:20:34.62,0.266,-0.221,-0.92,54040100917.0,-12.988,23.841,34.756
1408,735,2016-01-09 16:20:34.66,0.292,-0.212,-0.848,54066995084.0,-16.098,30.122,36.037
1409,736,2016-01-09 16:20:34.70,0.366,-0.217,-0.87,54069703209.0,-19.085,35.976,35.671
1410,737,2016-01-09 16:20:34.78,0.424,-0.199,-0.863,54115448625.0,-22.256,42.683,33.902
1411,738,2016-01-09 16:20:34.82,0.454,-0.154,-0.882,54118672427.0,-24.329,49.939,30.183
1412,739,2016-01-09 16:20:34.86,0.369,-0.141,-0.845,54164753208.0,-32.561,58.415,29.512
1413,740,2016-01-09 16:20:34.90,0.428,-0.129,-0.823,54167523781.0,-35.427,48.902,25.793
1414,741,2016-01-09 16:20:34.94,0.478,-0.134,-0.787,54212695083.0,-37.805,31.463,25.61
1415,742,2016-01-09 16:20:34.98,0.442,-0.198,-0.806,54215841906.0,-33.598,8.72,28.72
1416,743,2016-01-09 16:20:35.02,0.346,-0.259,-0.79,54261807582.0,-30.122,-3.902,36.524
1417,744,2016-01-09 16:20:35.06,0.216,-0.216,-0.807,54267951802.0,-17.195,-16.402,41.524
1418,745,2016-01-09 16:20:35.10,0.217,-0.312,-0.846,54321899041.0,-1.22,-32.683,44.512
1419,746,2016-01-09 16:20:35.14,0.193,-0.373,-0.826,54339919354.0,9.024,-49.024,38.963
1420,747,2016-01-09 16:20:35.18,0.31,-0.218,-0.948,54377617323.0,6.951,-69.207,38.293
1421,748,2016-01-09 16:20:35.22,-0.022,-0.297,-0.906,54395287218.0,10.671,-70.976,26.829
1422,749,2016-01-09 16:20:35.26,0.184,-0.339,-0.925,54418908052.0,16.646,-56.28,21.037
1423,750,2016-01-09 16:20:35.30,0.181,-0.239,-1.092,54421707374.0,4.756,-67.5,16.22
1424,751,2016-01-09 16:20:35.34,0.089,-0.2,-1.086,54456398311.0,8.537,-56.402,15.061
