ACCELEROMETER X (m/s²),ACCELEROMETER Y (m/s²),ACCELEROMETER Z (m/s²),GRAVITY X (m/s²),GRAVITY Y (m/s²),GRAVITY Z (m/s²),LINEAR ACCELERATION X (m/s²),LINEAR ACCELERATION Y (m/s²),LINEAR ACCELERATION Z (m/s²),GYROSCOPE X (rad/s),GYROSCOPE Y (rad/s),GYROSCOPE Z (rad/s),MAGNETIC FIELD X (μT),MAGNETIC FIELD Y (μT),MAGNETIC FIELD Z (μT),ORIENTATION Z (azimuth °),ORIENTATION X (pitch °),ORIENTATION Y (roll °),Time since start in ms ,YYYY-MO-DD HH-MI-SS_SSS
-5.2289,3.3519,7.1443,-4.7049,2.3435,8.279,-0.524,1.0084,-1.1347,-0.5369,-0.2706,-0.2642,24.25,8.25,-36.5,358.19,-16.17,32.86,129,2015-10-08 15:05:08:635
-5.2289,3.3519,7.1443,-4.7049,2.3435,8.279,-0.524,1.0084,-1.1347,-0.5369,-0.2706,-0.2642,24.25,8.25,-36.5,358.19,-16.17,32.86,221,2015-10-08 15:05:08:727
-5.2289,3.3519,7.1443,-4.7049,2.3435,8.279,-0.524,1.0084,-1.1347,-0.5369,-0.2706,-0.2642,24.25,8.25,-36.5,358.19,-16.17,32.86,322,2015-10-08 15:05:08:828
-2.2601,0.7661,9.7109,-2.8861,-0.0782,9.372,0.626,0.8443,0.3389,0.6072,-1.3167,-1.078,15.75,22.25,-37.0,10.3,-12.89,29.79,421,2015-10-08 15:05:08:927
-2.4517,1.0726,9.3087,-2.5164,0.0664,9.4781,0.0647,1.0062,-0.1694,0.9886,-1.3273,-0.637,12.5,22.0,-39.0,353.45,-0.39,14.87,521,2015-10-08 15:05:09:027
-2.7773,0.9194,9.1363,-0.9729,0.4879,9.7461,-1.8044,0.4315,-0.6098,-0.3899,-1.0887,-0.4645,3.5,22.5,-41.75,359.41,-3.47,7.79,621,2015-10-08 15:05:09:127
-0.6704,-0.1532,10.7069,-0.5007,0.1187,9.7931,-0.1696,-0.272,0.9137,0.2578,-0.1747,-0.2961,-1.5,23.5,-41.25,7.2,-0.69,2.93,722,2015-10-08 15:05:09:228
-0.0958,0.1915,9.4044,-0.5972,0.7029,9.7632,0.5014,-0.5113,-0.3588,0.6349,0.3345,-0.3558,-2.75,21.5,-41.5,12.47,-4.11,3.5,821,2015-10-08 15:05:09:327
-0.1341,0.1724,9.3278,-0.7584,0.8776,9.7378,0.6243,-0.7052,-0.41,0.2748,0.3537,-0.4261,-1.5,21.5,-42.5,8.86,-4.78,4.05,922,2015-10-08 15:05:09:428
-0.7278,1.2067,7.8913,-0.9179,1.0858,9.703,0.19,0.1208,-1.8117,-0.0447,-0.2322,0.2621,-1.5,20.0,-43.25,11.59,-6.36,5.4,1021,2015-10-08 15:05:09:527
-0.8236,0.6321,9.596,-0.4528,0.7729,9.7657,-0.3708,-0.1408,-0.1697,-0.4538,-0.4048,0.4453,-2.25,20.0,-43.0,10.91,-6.17,4.71,1121,2015-10-08 15:05:09:627
-0.4597,0.4214,9.6151,-0.5245,0.2468,9.7895,0.0648,0.1745,-0.1744,-0.8543,0.5241,0.8735,-3.25,22.75,-42.5,13.45,-3.71,2.24,1221,2015-10-08 15:05:09:727
0.0,0.3256,10.343,-0.6252,0.1067,9.7861,0.6252,0.219,0.5568,0.3814,-0.1065,0.9566,-1.0,25.25,-40.5,7.94,-0.62,3.66,1321,2015-10-08 15:05:09:827
-0.249,1.4365,10.0365,-0.5659,0.4995,9.7776,-0.0279,0.554,0.3164,0.0852,0.0511,1.3252,-0.5,25.5,-41.75,5.25,-2.47,3.48,1421,2015-10-08 15:05:09:927
0.6321,-0.6704,12.4307,-0.1687,0.4109,9.7966,0.207,-1.1196,3.0746,0.3771,-0.833,1.453,1.75,22.25,-42.0,0.1,-3.12,2.78,1521,2015-10-08 15:05:10:027
0.7661,0.8045,7.3167,0.1321,1.041,9.7504,0.5218,-0.1455,-2.4824,0.8224,0.3643,0.9545,3.75,23.5,-41.75,354.47,-2.4,0.99,1621,2015-10-08 15:05:10:127
0.3639,1.0534,8.6,0.1327,1.4086,9.7041,0.1316,-0.3467,-0.7273,-0.2471,-0.081,0.1662,4.25,23.75,-42.5,351.43,-8.22,-0.66,1721,2015-10-08 15:05:10:227
-0.3448,0.747,11.0516,0.156,1.0779,9.746,-0.4765,-0.3434,1.6075,-0.4325,-0.0724,-0.0362,7.25,18.75,-42.75,342.21,-7.12,-1.01,1821,2015-10-08 15:05:10:327
-0.1532,1.2258,7.8338,0.4004,1.0905,9.7376,-0.5537,0.1353,-1.9038,0.6008,-1.1036,-0.1321,7.25,19.0,-43.25,342.1,-4.94,-0.41,1921,2015-10-08 15:05:10:427
-0.1532,1.2258,7.8338,0.4004,1.0905,9.7376,-0.5537,0.1353,-1.9038,0.4155,-1.8642,-0.6242,7.25,19.25,-43.0,342.1,-4.94,-0.41,2021,2015-10-08 15:05:10:527
0.4597,0.7661,9.6917,1.6979,0.7752,9.6274,-1.2382,-0.009,0.0643,-0.1768,-0.8629,-0.3473,5.25,19.25,-43.25,334.06,-7.13,-5.03,2122,2015-10-08 15:05:10:628
2.7964,1.6472,10.2855,2.1631,0.6835,9.5407,0.6334,0.9637,0.7448,-0.1342,0.2557,-0.245,2.25,21.0,-43.25,338.74,-4.53,-10.0,2226,2015-10-08 15:05:10:732
9.8258,9.3853,9.9982,2.1267,0.8689,9.5337,7.6991,8.5163,0.4644,-0.8096,-0.5326,-0.5135,-2.25,22.0,-42.25,344.19,-3.92,-12.33,2321,2015-10-08 15:05:10:827
-0.9577,-0.8045,9.6343,2.6352,0.5919,9.4274,-1.5434,-1.6262,2.8118,0.0128,0.1342,-1.8323,-3.0,23.25,-42.0,342.37,-3.65,-15.22,2421,2015-10-08 15:05:10:927
0.5363,-1.1875,8.351,2.1285,1.5952,9.439,-2.1643,-2.6786,-1.4006,0.9843,-1.0077,-0.4985,-5.0,25.0,-40.5,353.06,-7.2,-12.29,2521,2015-10-08 15:05:11:027
-0.6512,-1.1301,7.1826,2.0322,2.0834,9.3648,-2.7811,-3.2079,-2.1617,0.3515,1.0397,0.0107,-6.5,25.5,-41.25,351.97,-11.14,-14.87,2621,2015-10-08 15:05:11:127
-0.2107,-0.5171,8.6574,1.7293,1.5997,9.5195,-1.9157,-2.2014,-0.8519,-0.4261,-0.0511,1.7129,-9.0,20.75,-42.25,2.79,-10.78,-10.23,2721,2015-10-08 15:05:11:227
4.7118,1.4748,10.8601,2.2322,1.1802,9.476,2.4796,0.2946,1.3841,0.6924,-0.2898,2.4096,-8.5,19.0,-42.75,358.13,-7.38,-11.58,2821,2015-10-08 15:05:11:327
4.0606,3.237,8.7149,2.637,1.5527,9.317,1.4236,1.6842,-0.6021,0.8437,0.1641,0.7606,-5.5,21.5,-42.5,348.7,-7.54,-14.99,2921,2015-10-08 15:05:11:427
1.1301,0.5171,10.4004,2.3024,1.7567,9.3693,-1.1723,-1.2395,1.0311,0.4581,0.4112,1.3827,-3.25,20.75,-43.5,344.05,-10.46,-14.82,3021,2015-10-08 15:05:11:527
2.3559,-0.4405,15.591,2.3116,1.3514,9.434,0.0443,-1.7919,6.157,0.4602,0.1747,0.326,0.0,19.25,-44.5,336.98,-9.5,-14.41,3121,2015-10-08 15:05:11:627
-1.9537,-1.4174,6.1292,2.0638,1.9294,9.3909,-4.0174,-3.3467,-3.2617,0.8863,1.1313,1.4211,2.75,16.75,-44.25,331.36,-10.33,-13.58,3222,2015-10-08 15:05:11:728
2.7007,3.3902,9.7875,1.8384,1.9222,9.439,0.8622,1.4679,0.3485,-1.2485,0.6903,1.7193,6.0,14.25,-44.25,326.94,-11.3,-11.02,3322,2015-10-08 15:05:11:828
2.1644,1.1684,7.4508,2.1483,2.193,9.3138,0.0161,-1.0246,-1.863,0.6285,-0.1875,-0.0618,8.5,10.75,-43.75,315.96,-10.69,-11.85,3421,2015-10-08 15:05:11:927
2.49,1.3599,7.7572,2.4953,2.2987,9.2011,-0.3844,-0.9552,-1.6011,0.1257,-1.2272,-1.0354,11.5,9.0,-44.5,309.42,-13.58,-13.66,3521,2015-10-08 15:05:12:027
2.7964,-0.2107,2.0494,4.4462,2.3171,8.4281,-1.7368,-2.06,-5.481,-0.784,-2.6887,-0.3217,10.0,6.5,-46.75,303.57,-14.43,-17.57,3621,2015-10-08 15:05:12:127
5.2289,-4.5203,0.8619,7.0934,0.834,6.7201,-1.986,-5.1449,-6.0285,-2.6802,-3.7668,0.7968,3.5,8.25,-47.25,291.74,-9.33,-40.13,3721,2015-10-08 15:05:12:227
10.1897,-14.844,1.8387,8.8036,-3.0808,3.0292,3.6469,-13.4533,0.3162,-5.2795,-4.8342,2.7377,-7.0,14.0,-45.25,285.49,1.29,-53.82,3821,2015-10-08 15:05:12:327
19.9581,-17.6022,11.7603,5.6491,-7.6549,-2.3792,12.8612,-18.2308,10.944,-6.611,-3.5793,6.0337,-19.75,25.5,-35.25,284.38,44.0,-101.2,3921,2015-10-08 15:05:12:427
4.3287,-3.8116,-0.6512,5.421,-8.1598,0.4469,-1.1364,4.265,-1.6868,4.0544,0.7009,-0.571,-23.25,41.5,-7.75,292.46,57.28,-103.0,4021,2015-10-08 15:05:12:527
8.1211,-6.359,-0.6129,5.11,-8.3466,0.6267,3.126,2.16,-1.3546,0.0213,-3.0126,0.8756,-12.0,50.75,4.5,21.32,57.08,-78.5,4121,2015-10-08 15:05:12:627
8.5042,-6.11,0.2873,4.9802,-8.34,-1.3461,3.1026,1.2149,3.1466,-4.6105,3.6986,0.0831,-9.0,52.75,-3.0,348.0,60.05,-96.8,4221,2015-10-08 15:05:12:727
8.351,-6.7612,2.2984,6.0428,-7.6854,-0.7677,2.4422,1.3264,3.1044,-1.6746,5.1814,-0.8416,-7.25,53.5,-0.75,354.55,53.45,-103.12,4321,2015-10-08 15:05:12:827
9.1554,-3.869,-2.5857,6.6225,-7.2266,0.298,2.0158,3.2427,-1.8111,1.8685,-0.2684,-0.1342,-9.5,49.75,12.0,24.2,47.47,-87.42,4421,2015-10-08 15:05:12:927
8.2744,-4.5011,-3.5434,7.0944,-6.7206,0.8206,1.5699,2.4965,-5.7807,1.338,-2.2946,0.1427,-18.5,44.25,15.0,39.94,43.95,-81.85,4521,2015-10-08 15:05:13:027
8.351,-5.2289,0.9194,7.198,-6.6557,0.2457,1.5028,0.7808,1.0795,1.4552,-1.9899,-0.1683,-20.25,44.25,10.0,29.36,42.74,-88.05,4621,2015-10-08 15:05:13:127
10.8218,-6.7421,0.3831,7.2965,-6.5509,-0.1283,3.2763,0.5558,0.1091,3.068,-3.1702,-0.0682,-19.5,45.5,7.25,17.25,41.91,-91.01,4721,2015-10-08 15:05:13:227
8.6383,-7.6806,-0.3256,8.1878,-5.3959,-0.122,0.4505,-2.2847,-0.2037,0.8181,-0.2429,-1.7257,-18.5,48.0,3.25,15.24,40.86,-91.59,4821,2015-10-08 15:05:13:327
8.1786,-6.9911,0.1724,8.6534,-4.6033,-0.3123,-0.6466,-1.9835,0.6419,0.2429,-0.8224,-1.1654,-21.25,47.5,-1.25,357.44,29.53,-91.1,4921,2015-10-08 15:05:13:427
7.7189,-6.9719,0.7661,9.0354,-3.804,-0.2473,-1.5538,-3.3126,1.0383,-0.6242,0.7755,-1.5105,-27.5,43.0,-3.0,352.7,22.82,-91.57,5022,2015-10-08 15:05:13:528
6.1483,-6.5697,0.4597,9.3211,-3.0129,0.4581,-3.5047,-3.4723,-0.4342,-0.0085,0.8309,-0.9246,-32.75,39.25,-2.75,353.57,20.95,-90.2,5122,2015-10-08 15:05:13:628
5.3822,-5.4205,-1.8196,9.2258,-3.1009,1.1997,-3.9904,-2.5319,-2.6616,-0.1427,0.5412,0.2898,-38.0,34.75,-3.75,1.35,17.31,-83.21,5221,2015-10-08 15:05:13:727
6.7421,-6.9911,-1.9537,8.5827,-4.6639,0.8697,-2.4108,-2.3005,-3.2531,-2.1391,0.588,1.7769,-40.5,31.0,-6.25,355.47,23.21,-82.88,5321,2015-10-08 15:05:13:827
10.4387,-10.6877,0.9577,6.831,-7.0126,-0.5751,3.3422,-3.9306,1.347,-3.134,-0.0128,3.9138,-39.25,34.25,-6.5,284.79,39.33,-89.95,5421,2015-10-08 15:05:13:927
13.4841,-5.363,1.8962,4.8074,-8.3695,-1.7352,8.3703,3.4661,3.4974,-0.5774,-0.2578,1.7193,-31.75,41.0,0.25,256.08,55.54,-105.93,5521,2015-10-08 15:05:14:027
8.7915,-5.3439,-1.5897,5.0523,-8.2632,-1.5375,3.5476,3.2833,0.3117,-0.4325,0.5028,-0.4282,-18.0,48.5,9.5,24.37,58.35,-108.28,5621,2015-10-08 15:05:14:127
7.7381,-5.1332,-0.7278,5.7935,-7.7072,-1.7905,1.8133,2.4702,1.0766,-1.9004,1.8876,-0.8416,-11.75,48.0,12.5,26.7,51.81,-107.17,5721,2015-10-08 15:05:14:227
6.8953,-5.5737,-0.6512,6.8777,-6.8263,-1.5065,-0.1026,1.294,0.3779,-0.3174,1.2123,-0.9438,-13.5,47.5,15.0,26.91,44.11,-102.35,5821,2015-10-08 15:05:14:327
7.7572,-5.0566,-3.8307,7.4033,-6.3765,-0.8378,0.3539,1.3199,-2.9929,1.0099,0.066,-0.2727,-19.5,44.5,17.5,33.15,42.27,-99.77,5921,2015-10-08 15:05:14:427
6.7421,-4.616,-3.2178,7.3879,-6.4182,-0.6289,-0.7225,1.7639,-2.2249,0.6583,-0.2834,0.6051,-24.0,43.0,16.5,41.71,40.05,-95.59,6022,2015-10-08 15:05:14:528
7.7189,-5.1332,-1.4365,6.8657,-6.9774,-0.5902,0.5405,1.8373,-0.9685,0.995,-1.1441,1.2613,-25.75,43.5,13.5,45.21,45.36,-94.91,6122,2015-10-08 15:05:14:628
12.7563,-5.7844,-0.6512,6.1268,-7.6353,-0.5788,6.6295,1.8509,-0.0724,2.3308,-3.0786,1.2762,-24.5,43.75,11.25,46.66,51.13,-95.4,6221,2015-10-08 15:05:14:727
8.4276,-7.4316,0.9002,7.6811,-6.0588,-0.6798,0.7465,-1.3728,1.58,-0.2194,1.3167,-2.9188,-18.0,47.5,7.75,13.68,38.16,-95.06,6321,2015-10-08 15:05:14:827
8.4851,-8.1786,-0.3065,8.6839,-4.5273,-0.5133,-0.095,-3.6054,0.312,1.078,-1.7279,-1.6256,-20.0,47.5,6.75,9.93,27.49,-93.38,6421,2015-10-08 15:05:14:927
9.0597,-7.0485,-0.8811,9.0346,-3.6217,-1.1954,-0.4074,-3.783,0.4727,-0.7073,0.3878,-1.6405,-28.0,42.5,4.75,2.49,21.67,-97.54,6522,2015-10-08 15:05:15:028
6.9911,-6.9719,0.5746,9.5257,-2.2689,-0.533,-2.7453,-4.703,1.0884,-1.078,1.0994,-1.8323,-31.25,40.0,4.75,3.2,18.43,-96.3,6621,2015-10-08 15:05:15:127
4.1946,-6.1483,0.3639,9.6953,-1.4719,0.0726,-5.5007,-4.6764,0.2913,-0.6541,0.6392,-0.1044,-38.5,31.0,5.5,6.69,13.38,-93.2,6721,2015-10-08 15:05:15:227
4.1372,-5.8419,-0.9577,9.3766,-2.844,0.4019,-4.5239,-3.229,-1.5684,-0.9886,-0.0107,2.3691,-44.25,22.5,3.25,27.69,16.86,-87.55,6821,2015-10-08 15:05:15:327
9.3087,-10.3046,-1.5897,7.849,-5.8656,-0.3982,0.6066,-4.2782,-1.4127,-2.4565,0.1172,4.5338,-44.0,24.25,3.25,27.69,16.86,-87.55,6921,2015-10-08 15:05:15:427
16.2423,-9.8258,1.6089,4.6558,-8.3681,-2.1137,11.5865,-1.4577,3.7226,-3.085,0.1598,4.8448,-35.75,33.75,7.25,115.68,36.74,-92.9,7022,2015-10-08 15:05:15:528
7.6231,-5.8419,3.1603,4.5397,-8.2806,-2.6444,3.7936,0.9949,5.7789,-1.5532,2.073,1.1675,-15.25,41.75,21.75,79.11,57.61,-120.22,7121,2015-10-08 15:05:15:627
7.4124,-2.8156,-0.5938,3.8152,-8.7107,-2.3957,3.5973,5.8951,1.8019,0.6562,-0.9673,0.7776,-13.0,40.5,25.5,89.61,58.98,-121.0,7221,2015-10-08 15:05:15:727
12.0859,-5.2289,-1.1684,4.2303,-8.398,-2.7834,7.8556,3.1691,1.6151,-1.5766,1.5723,-0.4304,-8.0,41.25,28.25,97.35,62.65,-122.13,7321,2015-10-08 15:05:15:827
9.0405,-7.5848,-0.3065,6.902,-6.7682,-1.6507,2.1385,-0.8166,1.3443,0.3153,2.6035,-3.0339,-7.5,40.0,29.75,62.36,48.87,-110.65,7421,2015-10-08 15:05:15:927
8.1211,-6.9336,-5.1332,8.6974,-4.5132,-0.3958,-0.5763,-2.4204,-4.7374,2.1604,-0.0874,-1.9942,-20.75,33.75,29.5,62.2,34.32,-95.4,7521,2015-10-08 15:05:16:027
6.4165,-6.0908,-5.3439,9.172,-3.4307,-0.5249,-3.0636,-2.6133,-4.7091,1.8344,-1.0141,-1.2634,-30.5,31.25,24.5,55.45,22.98,-91.96,7621,2015-10-08 15:05:16:127
4.367,-4.5586,-3.371,9.0828,-3.5118,-1.1581,-4.7158,-1.0468,-2.213,0.3622,-0.5923,1.0099,-35.25,28.25,20.0,50.11,19.44,-94.74,7721,2015-10-08 15:05:16:227
6.8187,-5.8035,-2.241,8.3077,-4.9859,-1.5144,-1.489,-0.8177,-0.7266,0.7713,-0.9886,2.5098,-34.0,28.0,19.25,56.6,26.43,-99.2,7822,2015-10-08 15:05:16:328
13.0053,-8.351,-2.0494,6.1008,-7.4211,-1.9694,6.9045,-0.9299,-0.08,-0.0043,-0.8416,2.8528,-28.75,33.75,19.0,67.04,40.14,-103.57,7921,2015-10-08 15:05:16:427
12.0285,-3.1603,0.996,5.3777,-7.8368,-2.4157,6.0953,4.4657,4.1587,-0.3537,-0.7009,-0.9417,-18.0,40.25,18.5,73.65,49.18,-107.89,8021,2015-10-08 15:05:16:527
8.7724,-7.853,1.245,6.597,-6.9354,-2.133,1.9647,-0.1514,4.4889,1.8663,-0.9012,-2.0517,-9.25,42.5,20.0,46.55,51.05,-113.67,8121,2015-10-08 15:05:16:627
10.3621,-8.3893,0.1724,7.7996,-5.6868,-1.7309,3.003,-2.7599,1.865,1.1633,-1.5915,-1.9601,-9.5,44.75,18.25,30.14,39.14,-102.58,8221,2015-10-08 15:05:16:727
9.0405,-8.8107,0.5555,9.183,-3.3187,-0.9104,-0.3149,-5.4728,1.485,-0.2109,1.2719,-2.7164,-15.0,45.5,14.0,18.62,27.89,-100.72,8321,2015-10-08 15:05:16:827
7.2401,-7.9487,0.1149,9.672,-1.6187,0.0518,-2.5468,-6.2342,-0.0326,0.4304,0.8117,-2.3138,-25.0,42.5,12.0,17.38,12.33,-91.23,8421,2015-10-08 15:05:16:927
5.4205,-5.9376,-1.7047,9.7778,-0.3863,0.6455,-4.6455,-5.3379,-2.5774,0.7457,0.5071,-1.3465,-35.25,33.5,7.75,16.86,9.5,-89.69,8522,2015-10-08 15:05:17:028
5.5162,-6.7229,-4.9416,9.7864,-0.4307,0.4603,-4.5546,-5.6569,-5.0632,-0.0277,-0.3707,0.7542,-42.0,28.5,4.0,16.73,2.26,-86.22,8621,2015-10-08 15:05:17:127
7.0485,-8.0637,-1.992,9.073,-3.7197,-0.1216,-2.4231,-5.2622,-1.9981,-2.3521,0.7244,3.673,-42.25,26.25,3.25,9.6,9.31,-89.74,8721,2015-10-08 15:05:17:227
12.3349,-9.6151,1.8579,6.9721,-6.8104,-1.0858,6.743,-2.0725,3.4492,-2.1263,-1.1675,4.374,-37.5,32.75,6.25,37.84,36.99,-94.6,8821,2015-10-08 15:05:17:327
12.8521,-6.2632,0.9577,5.5288,-7.7027,-2.5042,6.2348,1.3056,3.4975,-1.9281,1.534,0.2088,-23.5,41.5,13.75,45.9,52.42,-111.15,8922,2015-10-08 15:05:17:428
8.1786,-5.4205,0.9577,6.1464,-7.2917,-2.2856,1.5219,2.1426,2.8949,-0.9374,1.0759,-0.1726,-11.25,44.5,22.25,46.02,48.92,-112.37,9021,2015-10-08 15:05:17:527
7.355,-5.2481,-0.5555,6.7678,-6.781,-2.0943,0.5076,1.7447,1.6813,-0.5582,1.0994,-0.2493,-12.25,39.75,26.0,54.89,44.66,-108.39,9121,2015-10-08 15:05:17:627
7.5657,-4.4628,-1.7047,6.9715,-6.7265,-1.5238,0.9491,2.4183,-1.4651,1.8685,-0.6839,0.0192,-16.5,37.75,28.25,61.35,42.82,-103.89,9222,2015-10-08 15:05:17:728
8.1403,-4.3862,-4.1755,6.9058,-6.8854,-1.0354,1.2339,2.4803,-2.2264,1.4061,-1.4445,0.2791,-17.5,39.25,26.0,63.36,43.72,-100.78,9322,2015-10-08 15:05:17:828
9.7492,-6.1483,-2.2218,6.9545,-6.8584,-0.8759,2.7947,0.7101,-1.3459,2.7718,-2.4096,-0.3622,-15.75,44.0,21.75,54.36,45.11,-98.68,9422,2015-10-08 15:05:17:928
10.726,-7.7572,-1.3216,7.3964,-6.376,-0.8998,3.3296,-1.3812,-0.4218,0.9353,-0.8735,-1.3508,-13.75,46.5,15.25,39.44,44.38,-97.18,9522,2015-10-08 15:05:18:028
6.7995,-6.1675,0.9194,8.3762,-5.0628,-0.6147,-1.5766,-1.1046,1.5341,0.7585,0.0447,-1.5446,-16.75,48.0,10.25,19.86,37.27,-96.44,9622,2015-10-08 15:05:18:128
6.2249,-7.5465,1.7238,9.0614,-3.7496,0.0347,-2.8365,-3.7969,1.6891,0.5902,0.2216,-1.1761,-24.25,46.25,7.75,13.33,23.75,-90.77,9722,2015-10-08 15:05:18:228
6.2632,-6.9911,0.9385,9.1389,-3.5465,0.2718,-2.8756,-3.4446,0.6667,0.9332,-0.2578,-0.1427,-31.5,43.25,5.25,13.34,22.48,-89.78,9822,2015-10-08 15:05:18:328
6.8761,-6.3398,0.3256,8.9387,-4.0187,0.3458,-2.1903,-2.3594,0.0083,0.5007,-0.1023,0.4453,-33.5,39.5,3.0,10.86,21.51,-88.06,9921,2015-10-08 15:05:18:427
7.5465,-6.7612,0.2873,8.6032,-4.7022,0.2111,-0.9277,-1.8865,-0.2344,0.8799,-0.8522,0.9396,-34.5,40.25,0.75,8.69,24.19,-87.78,10022,2015-10-08 15:05:18:528
8.4659,-6.2632,-1.0726,8.0769,-5.5618,0.0266,0.389,-0.7014,-1.0992,0.6732,-0.5944,1.3401,-32.25,43.25,0.0,0.35,34.55,-89.81,10136,2015-10-08 15:05:18:642
9.6534,-5.4013,-1.1492,7.2907,-6.5509,-0.318,2.3627,1.1496,-0.8312,-0.2642,-0.1278,0.8714,-26.75,45.25,-0.5,357.78,40.72,-91.35,10221,2015-10-08 15:05:18:727
10.726,-8.1211,-1.6089,7.2995,-6.4932,-0.8523,3.4266,-1.6279,-0.7566,-1.0269,0.1214,0.0043,-22.5,49.0,0.5,356.84,41.91,-92.5,10321,2015-10-08 15:05:18:827
6.608,-5.9185,1.1684,7.538,-6.1689,-1.1376,-0.93,0.2504,2.3059,-2.8443,2.4735,-0.081,-21.75,49.5,4.75,3.85,38.98,-98.58,10421,2015-10-08 15:05:18:927
7.5465,-5.4205,-1.1301,7.7976,-5.9187,-0.5807,-0.7682,0.8047,-0.3004,-0.017,-0.4091,-0.2898,-22.25,48.0,10.75,14.54,38.43,-96.88,10521,2015-10-08 15:05:19:027
7.9104,-6.2824,-2.0877,8.0149,-5.5719,-0.9414,-0.1044,-0.7105,-1.1464,-1.3444,1.2251,-0.2663,-24.75,45.75,13.5,22.57,36.52,-95.46,10621,2015-10-08 15:05:19:127
7.0294,-5.1906,-1.3599,8.1542,-5.376,-0.8822,-1.144,0.1662,-0.5543,0.0362,0.017,-0.0447,-26.25,44.5,15.75,28.46,33.97,-96.2,10721,2015-10-08 15:05:19:227
8.2552,-5.3247,-2.6815,7.862,-5.7719,-1.0219,0.3932,0.4472,-1.6596,0.6285,-0.588,0.6136,-28.0,42.25,16.5,34.75,33.39,-96.26,10821,2015-10-08 15:05:19:327
8.4276,-4.9416,-1.8196,7.5595,-6.1198,-1.2536,0.868,1.1782,-0.566,0.5177,-0.637,0.196,-26.75,42.0,16.25,37.83,38.15,-98.82,10921,2015-10-08 15:05:19:427
7.7572,-4.9416,-0.5363,7.4358,-6.2638,-1.2821,0.3214,1.3222,0.7458,0.98,-0.7457,0.1513,-23.5,44.25,15.25,30.99,39.35,-99.89,11021,2015-10-08 15:05:19:527
9.0022,-5.7461,-1.6281,7.437,-6.2905,-1.1362,1.5652,0.5444,-0.4918,1.3721,-0.8096,-0.3686,-20.75,47.75,13.25,23.51,39.9,-98.69,11121,2015-10-08 15:05:19:627
9.5577,-6.6846,-1.4557,7.6749,-6.0292,-0.9563,1.3487,-0.2206,-0.5126,0.9033,-0.3238,-0.7116,-20.75,49.75,10.25,15.82,37.94,-97.1,11221,2015-10-08 15:05:19:727
4.9608,-6.5505,-0.2682,8.1356,-5.4291,-0.7124,-3.0918,-1.2346,0.564,0.8053,-0.3537,-0.7542,-22.25,48.75,6.75,9.97,34.37,-95.47,11321,2015-10-08 15:05:19:827
6.8187,-8.4659,-0.0383,7.9268,-5.7248,-0.7502,-1.1081,-2.7411,0.7119,0.7734,-0.833,0.4432,-24.0,49.5,3.75,4.03,34.44,-94.89,11421,2015-10-08 15:05:19:927
6.0717,-6.9336,1.743,7.5264,-6.2338,-0.815,-1.3151,-0.93,2.4902,0.1726,-0.1491,0.4069,-24.75,48.75,2.75,0.74,37.52,-96.39,11521,2015-10-08 15:05:20:027
6.9911,-6.4931,1.0918,7.2164,-6.6285,-0.3965,-0.4385,-0.1417,1.854,0.8671,-0.2322,0.5923,-24.5,48.0,2.5,2.02,40.29,-95.37,11621,2015-10-08 15:05:20:127
8.1403,-6.0525,-0.4214,7.0038,-6.8642,0.0022,1.1365,0.8117,-0.4236,0.424,-0.1172,0.115,-21.75,49.0,1.25,2.94,44.42,-89.98,11722,2015-10-08 15:05:20:228
8.4084,-7.2209,0.4405,7.3889,-6.4457,-0.1651,0.7556,-0.7022,0.8335,-1.2975,1.3401,-0.8948,-20.0,51.75,-2.0,354.68,42.63,-90.86,11822,2015-10-08 15:05:20:328
6.857,-6.4548,0.1149,7.8386,-5.88,0.389,-0.7868,-0.5388,0.1164,-0.2152,1.1611,-0.8373,-20.25,50.5,-1.25,359.98,36.84,-87.16,11921,2015-10-08 15:05:20:427
7.1635,-6.4165,-1.5514,8.149,-5.4346,0.4791,-0.9855,-0.9819,-2.0305,-0.0426,-0.1896,-0.6541,-23.5,50.25,-0.75,0.7,33.65,-86.64,12022,2015-10-08 15:05:20:528
7.3167,-7.6998,0.3256,8.237,-5.3214,0.0706,-0.9203,-2.3783,0.2551,-1.1505,0.3473,-0.0341,-27.5,48.5,-0.5,359.15,32.54,-88.72,12121,2015-10-08 15:05:20:627
5.8035,-4.2138,-1.2258,7.8402,-5.8902,0.0872,-2.1271,1.1507,-0.6585,0.3601,-0.4112,0.7776,-30.0,47.5,1.25,1.18,34.6,-89.03,12222,2015-10-08 15:05:20:728
10.9176,-11.1282,0.0958,7.4833,-6.3241,-0.4191,2.4617,-3.3109,-0.2415,-0.8884,-0.5539,0.6093,-28.75,47.25,1.25,5.59,37.87,-90.22,12321,2015-10-08 15:05:20:827
8.1211,-3.8116,0.7661,6.8918,-6.9574,-0.5173,0.1917,3.9358,0.3201,0.7798,0.6029,0.3451,-27.25,49.5,2.75,356.59,44.01,-96.0,12421,2015-10-08 15:05:20:927
5.114,-1.8387,-2.8539,7.1134,-6.7503,0.068,-0.9886,3.6216,-2.6424,0.4836,-0.7521,-0.2898,-22.0,51.75,4.0,14.9,44.42,-89.45,12521,2015-10-08 15:05:21:027
9.2512,-7.9871,1.7047,7.2254,-6.5766,-0.8445,2.0726,-1.3636,2.5809,-0.5071,-0.2301,0.6392,-20.75,51.5,1.5,3.25,41.58,-94.32,12621,2015-10-08 15:05:21:127
4.7309,-3.8116,-0.7853,7.4815,-6.3401,0.0397,-2.5206,1.984,-1.2179,1.845,-0.4581,-0.539,-22.5,50.75,4.0,358.77,42.65,-96.45,12721,2015-10-08 15:05:21:227
9.481,-7.7572,-1.8771,7.6002,-6.1657,-0.6262,0.7949,0.0146,-0.3738,-0.1662,-1.1143,-0.0192,-23.0,51.25,2.5,9.25,39.23,-91.87,12821,2015-10-08 15:05:21:327
6.9145,-6.5314,0.2873,7.8635,-5.8591,-0.0761,-0.9491,-0.6722,0.3634,-0.1236,1.2804,-0.392,-24.75,50.5,1.25,359.96,37.1,-92.33,12921,2015-10-08 15:05:21:427
7.3358,-6.0334,-0.9385,7.892,-5.8098,-0.3651,-0.5978,-0.2099,-0.503,0.1641,-0.5518,-0.13,-27.5,49.0,1.25,359.39,36.33,-92.65,13022,2015-10-08 15:05:21:528
7.4316,-6.0334,-0.4597,7.811,-5.9259,-0.2063,-0.3794,-0.1075,-0.2534,-0.1321,0.2557,0.1811,-29.0,47.75,1.0,0.65,37.18,-91.51,13121,2015-10-08 15:05:21:627
7.9487,-5.9759,-0.6512,7.6321,-6.1439,-0.417,0.3167,0.168,-0.2342,-0.4133,0.1641,0.3579,-29.25,47.0,0.75,358.19,38.79,-93.13,13221,2015-10-08 15:05:21:727
8.102,-5.8419,-0.2107,7.4529,-6.3529,-0.5151,0.6682,0.5494,0.2661,-0.0362,-0.0937,0.1768,-28.5,47.25,0.75,357.7,39.53,-93.56,13322,2015-10-08 15:05:21:828
8.9064,-6.2632,-0.2298,7.4061,-6.3997,-0.6031,1.5578,0.1747,0.2201,-0.3196,-0.0064,0.0469,-26.0,49.0,2.75,2.51,40.74,-94.66,13421,2015-10-08 15:05:21:927
8.1977,-5.861,-0.1724,7.5298,-6.2529,-0.611,0.4764,0.5834,0.1704,-0.0383,0.0447,-0.2237,-24.25,48.75,2.25,359.81,40.46,-94.93,13521,2015-10-08 15:05:22:027
6.6846,-4.5394,-0.5938,7.7403,-5.9956,-0.5572,-1.0557,1.4562,-0.0366,0.0959,0.0021,-0.3686,-24.0,50.75,3.0,2.84,37.69,-94.12,13621,2015-10-08 15:05:22:127
9.7492,-8.8873,0.6129,7.7764,-5.934,-0.6974,1.8004,-2.1447,1.1906,0.3238,-0.5497,0.1513,-25.5,50.0,2.75,2.83,37.13,-94.07,13721,2015-10-08 15:05:22:227
6.7229,-4.5969,-0.5746,7.8134,-5.9114,-0.4211,-1.5491,1.2176,-0.1899,0.1278,0.718,-0.3707,-26.0,49.25,2.75,2.47,37.62,-94.43,13822,2015-10-08 15:05:22:328
6.0334,-3.9073,-1.3982,7.8967,-5.8013,-0.3967,-1.5142,1.5076,-1.182,0.2898,-0.3515,-0.0341,-26.5,49.5,3.25,4.45,36.44,-92.37,13922,2015-10-08 15:05:22:428
10.094,-9.0597,1.4365,7.7061,-6.0342,-0.6115,2.3508,-3.0703,2.0206,0.5326,-0.7691,0.4602,-27.0,50.75,2.25,3.42,36.1,-93.31,14022,2015-10-08 15:05:22:528
7.2209,-6.4739,-0.5746,7.8385,-5.8888,-0.2229,-0.8475,-0.2404,-0.3708,0.1257,-0.0234,-0.1278,-27.25,49.75,2.25,359.0,38.57,-94.86,14122,2015-10-08 15:05:22:628
8.5234,-5.7461,-0.9002,7.7468,-5.9899,-0.5286,0.7766,0.2438,-0.3717,-0.4687,0.6732,0.0895,-27.25,48.5,2.25,0.87,37.51,-93.52,14221,2015-10-08 15:05:22:727
6.8761,-4.7692,-0.9002,7.8008,-5.9303,-0.3861,-0.8529,1.0656,-0.2754,0.1747,-0.1917,-0.1662,-28.0,48.0,1.75,0.42,37.65,-93.9,14321,2015-10-08 15:05:22:827
9.596,-8.5234,0.1341,7.7638,-5.9596,-0.6142,1.1559,-2.0207,0.0597,-0.1917,-0.2344,0.049,-28.0,48.0,1.5,1.25,36.97,-93.13,14421,2015-10-08 15:05:22:927
7.4508,-4.6543,0.0766,7.666,-6.0915,-0.5446,-0.9102,1.6064,0.3097,-0.0618,0.5987,-0.1172,-28.25,49.5,1.5,358.5,38.56,-95.24,14521,2015-10-08 15:05:23:027
6.9911,-5.0182,-1.494,7.7449,-6.0019,-0.4055,-0.5056,0.5787,-1.006,-0.147,-0.0852,-0.0213,-28.25,49.25,2.5,4.23,38.08,-92.92,14621,2015-10-08 15:05:23:127
9.7875,-7.7381,0.0766,7.6608,-6.0915,-0.6129,1.619,-0.6142,0.7413,-0.2919,-0.0937,0.2067,-27.25,49.75,1.75,0.08,37.98,-94.17,14722,2015-10-08 15:05:23:228
6.608,-3.9073,-0.7853,7.6927,-6.0738,-0.3181,-1.296,2.2967,-0.7765,0.4155,0.1321,-0.1981,-28.75,49.25,3.0,3.76,38.59,-93.3,14821,2015-10-08 15:05:23:327
8.983,-8.1211,-0.498,7.867,-5.8402,-0.4161,0.8096,-1.9554,-0.2542,-0.3601,-0.2983,0.0107,-26.5,49.75,3.0,4.87,36.85,-92.03,14921,2015-10-08 15:05:23:427
8.3318,-5.5162,0.7087,7.7416,-5.9909,-0.5894,-0.5207,1.5281,0.9533,-0.1747,0.4602,0.1449,-27.5,48.5,2.5,1.63,37.38,-95.0,15021,2015-10-08 15:05:23:527
6.9911,-4.9799,-2.1069,7.874,-5.8317,-0.4028,-0.8974,0.8309,-1.688,0.3707,-0.2365,-0.3537,-27.75,49.0,4.0,6.69,37.08,-92.87,15121,2015-10-08 15:05:23:627
10.4196,-9.0405,0.1915,7.8462,-5.8349,-0.7489,1.8746,-1.8814,1.3186,-0.6306,-0.1385,0.3238,-28.75,49.75,3.25,8.65,36.49,-92.93,15221,2015-10-08 15:05:23:727
6.3782,-3.5626,-1.1492,7.7073,-6.0458,-0.4657,-1.2413,2.3263,-0.1646,0.7393,-0.0362,-0.1172,-29.0,47.5,3.5,0.37,37.26,-95.64,15322,2015-10-08 15:05:23:828
8.0828,-6.4931,-1.1684,7.8269,-5.883,-0.5481,-0.0761,-0.0106,-1.0207,-0.2791,-0.2365,-0.1747,-28.0,48.75,4.25,7.58,37.56,-92.28,15422,2015-10-08 15:05:23:928
9.2512,-6.7612,0.747,7.7143,-6.0177,-0.6696,1.5095,-0.7837,1.4579,-0.2706,0.2216,0.3941,-28.75,49.0,2.25,359.02,36.79,-94.68,15521,2015-10-08 15:05:24:027
6.2058,-3.8116,-1.8771,7.8342,-5.8908,-0.3074,-1.6429,2.0601,-1.5723,0.539,-0.0682,-0.3025,-28.5,49.25,4.0,6.9,37.38,-92.77,15622,2015-10-08 15:05:24:128
9.6917,-9.0788,-0.0766,7.9095,-5.7652,-0.611,1.7822,-3.3136,0.5344,-0.6072,-0.1172,-0.0043,-27.75,48.5,4.0,10.3,36.92,-92.25,15721,2015-10-08 15:05:24:227
8.0445,-4.5969,0.249,7.699,-6.0469,-0.5748,0.3455,1.45,0.8237,0.1534,0.6647,-0.0064,-29.0,47.5,2.5,2.15,36.01,-94.42,15821,2015-10-08 15:05:24:327
6.5122,-4.0414,-2.1069,7.7916,-5.9477,-0.2957,-1.2793,1.9062,-1.8112,0.6115,-0.2983,-0.049,-29.0,49.0,4.0,7.99,37.61,-92.06,15921,2015-10-08 15:05:24:427
10.3813,-8.1403,0.3831,7.6889,-6.053,-0.642,2.6923,-2.0873,1.0251,-0.2812,-0.1981,0.3665,-28.5,49.0,3.0,2.5,37.42,-94.18,16021,2015-10-08 15:05:24:527
6.3207,-4.3287,-0.4405,7.7599,-5.9867,-0.3375,-1.4392,1.658,-0.103,0.2535,0.1534,-0.1065,-27.75,49.25,4.0,1.79,38.5,-94.79,16121,2015-10-08 15:05:24:627
9.2129,-7.2784,-0.6512,7.7498,-5.9807,-0.5857,1.4631,-1.2977,-0.0656,-0.392,0.0895,0.1385,-27.25,49.0,4.25,10.23,37.29,-92.28,16222,2015-10-08 15:05:24:728
7.1826,-5.0374,-0.6129,7.7773,-5.9501,-0.5292,-0.5947,0.9127,-0.0837,0.0469,0.294,-0.0874,-28.0,49.25,3.25,4.65,37.76,-94.66,16321,2015-10-08 15:05:24:827
8.5808,-6.4165,-0.3256,7.7712,-5.9502,-0.6115,0.8671,-0.3705,0.305,-0.1214,-0.1875,0.0597,-28.0,50.5,5.0,7.12,37.17,-94.19,16421,2015-10-08 15:05:24:927
8.3701,-5.6312,-0.5171,7.7499,-5.9822,-0.5678,0.8117,0.1978,0.338,0.1768,-0.017,-0.0575,-27.5,49.5,4.5,7.47,37.59,-94.19,16521,2015-10-08 15:05:25:027
7.0102,-4.8076,-0.8811,7.8282,-5.8865,-0.4882,-0.8844,1.1251,-0.4759,0.0937,0.0533,-0.1065,-27.5,48.5,5.0,8.25,36.89,-93.57,16621,2015-10-08 15:05:25:127
9.1363,-7.5848,-0.1341,7.9169,-5.7534,-0.6248,1.0519,-1.6964,0.401,-0.179,-0.1747,-0.0213,-28.0,49.25,4.25,4.85,35.82,-94.14,16721,2015-10-08 15:05:25:227
7.8721,-5.363,-0.4214,7.8915,-5.7925,-0.5838,0.248,0.1008,0.3163,-0.0852,0.3132,0.0724,-29.25,49.25,4.0,4.85,35.82,-94.14,16822,2015-10-08 15:05:25:328
7.7381,-5.612,-1.0534,7.8865,-5.8001,-0.5762,-0.1484,0.1881,-0.4772,-0.0746,-0.1321,0.032,-28.5,47.25,4.75,7.92,36.26,-94.18,16922,2015-10-08 15:05:25:428
8.2744,-5.7652,-0.1724,7.8126,-5.8908,-0.6582,0.4618,0.1255,0.4858,0.0831,0.0959,0.0639,-28.25,48.5,4.5,6.77,36.92,-94.82,17021,2015-10-08 15:05:25:527
7.6806,-5.4779,-0.7278,7.8023,-5.9085,-0.62,-0.1217,0.4306,-0.1079,0.0575,-0.0469,-0.0128,-29.0,48.75,5.25,7.14,37.05,-94.54,17122,2015-10-08 15:05:25:628
8.2361,-5.7078,-0.4214,7.8123,-5.8924,-0.6465,0.6123,0.0659,0.2239,0.0192,-0.098,0.0767,-27.75,49.0,4.5,6.87,36.93,-94.74,17221,2015-10-08 15:05:25:727
7.7189,-5.5929,-0.7087,7.8522,-5.8433,-0.6068,-0.1333,0.2505,-0.0253,0.0746,0.0043,-0.0639,-28.25,49.5,4.5,6.92,36.57,-94.42,17321,2015-10-08 15:05:25:827
8.102,-5.8419,-0.5746,7.8981,-5.7793,-0.6252,0.2039,-0.0626,0.0506,0.066,-0.0533,-0.0767,-28.0,49.0,4.75,6.99,36.26,-94.49,17421,2015-10-08 15:05:25:927
7.7189,-5.7269,-0.5555,7.9383,-5.7256,-0.6101,-0.2002,0.0369,0.0354,0.0575,0.0149,-0.0234,-28.0,49.0,5.0,7.15,35.8,-94.46,17521,2015-10-08 15:05:26:027
7.9679,-5.7844,-0.498,7.9349,-5.7284,-0.6273,0.0395,-0.0461,0.1207,-0.1257,0.0234,0.0234,-28.5,49.5,5.5,8.94,35.74,-94.52,17621,2015-10-08 15:05:26:127
7.9487,-5.7652,-0.5746,7.9178,-5.757,-0.5788,0.0086,0.0072,-0.0791,0.0703,-0.0107,-0.0554,-28.75,49.5,5.25,7.01,35.91,-94.19,17721,2015-10-08 15:05:26:227
8.0254,-5.7269,-0.498,7.8967,-5.7828,-0.6096,0.1478,0.0941,0.0541,-0.0533,-0.0128,0.0192,-28.25,50.0,4.25,4.42,36.13,-94.41,17822,2015-10-08 15:05:26:328
8.0254,-5.6886,-0.5363,7.9052,-5.7734,-0.5876,0.1201,0.0848,0.0513,-0.0107,-0.0597,0.0447,-28.5,50.0,4.5,7.02,36.01,-94.21,17922,2015-10-08 15:05:26:428
7.9871,-5.6886,-0.4788,7.9279,-5.741,-0.5993,0.0591,0.0524,0.1204,0.0511,-0.0149,0.0149,-28.75,50.0,5.0,6.83,35.83,-94.32,18021,2015-10-08 15:05:26:527
7.9487,-5.7461,-0.5363,7.9392,-5.7246,-0.6062,0.0095,-0.0214,0.0699,-0.0511,-0.0874,0.0533,-28.75,49.5,4.5,6.74,35.71,-94.37,18121,2015-10-08 15:05:26:627
7.9871,-5.7269,-0.6129,7.9536,-5.7072,-0.581,0.0334,-0.0197,-0.0319,0.0341,-0.0405,-0.0788,-29.0,49.5,5.0,6.94,35.59,-94.18,18221,2015-10-08 15:05:26:727
7.9487,-5.6886,-0.5555,7.9629,-5.6943,-0.5809,-0.0142,0.0057,0.0255,0.0746,-0.0362,0.0724,-27.75,49.25,4.5,7.16,35.5,-94.17,18321,2015-10-08 15:05:26:827
7.9104,-5.7461,-0.5938,7.9448,-5.7173,-0.6022,-0.0152,-0.048,0.0276,-0.0298,0.1214,-0.0128,-27.5,49.25,4.0,4.65,35.66,-94.33,18422,2015-10-08 15:05:26:928
7.8721,-5.7652,-0.5746,7.9727,-5.6822,-0.564,-0.1006,-0.083,-0.0106,-0.0234,0.0746,-0.066,-28.5,50.0,5.0,7.05,35.41,-94.05,18521,2015-10-08 15:05:27:027
7.9104,-5.7652,-0.5555,7.9686,-5.6886,-0.559,-0.0198,-0.0958,0.0036,0.032,-0.0618,0.0767,-28.75,50.25,5.0,7.1,35.34,-93.99,18621,2015-10-08 15:05:27:127
7.9679,-5.7461,-0.5555,7.9631,-5.6985,-0.5361,-0.0335,-0.0668,-0.0194,0.0426,0.0192,0.0639,-29.25,50.0,4.75,7.33,35.49,-93.83,18722,2015-10-08 15:05:27:228
7.9871,-5.7269,-0.5938,7.9673,-5.6934,-0.5276,0.0189,-0.0151,-0.0914,-0.0746,-0.0554,0.0021,-29.5,49.0,4.0,4.92,35.53,-93.85,18822,2015-10-08 15:05:27:328
7.9104,-5.7269,-0.498,7.967,-5.6977,-0.4836,-0.0226,-0.0355,-0.0699,-0.0895,0.0234,0.017,-29.5,48.5,4.25,5.17,35.49,-93.79,18922,2015-10-08 15:05:27:428
7.9487,-5.7844,-0.5746,7.9699,-5.6933,-0.4884,-0.0228,-0.1129,-0.0833,0.0362,-0.0469,-0.0447,-28.5,49.0,4.0,5.4,35.47,-93.62,19021,2015-10-08 15:05:27:527
7.9296,-5.7652,-0.5555,7.9801,-5.6801,-0.4744,-0.0505,-0.0851,-0.0427,-0.0021,0.228,0.0234,-28.5,48.25,4.75,8.25,35.46,-93.48,19121,2015-10-08 15:05:27:627
7.9487,-5.7652,-0.5363,8.0083,-5.6435,-0.4348,-0.0562,-0.1179,-0.0911,-0.0618,0.0575,0.0746,-28.5,49.25,4.5,8.27,35.31,-93.18,19221,2015-10-08 15:05:27:727
7.9487,-5.7652,-0.5746,7.998,-5.6581,-0.4352,-0.0101,-0.1055,-0.0318,-0.049,-0.0085,-0.0149,-28.5,50.0,5.0,8.06,35.32,-93.12,19321,2015-10-08 15:05:27:827
7.9104,-5.7652,-0.5363,8.0125,-5.6337,-0.4812,-0.1077,-0.1584,-0.0768,-0.1001,0.0213,-0.115,-28.25,49.75,5.25,7.82,35.2,-93.31,19421,2015-10-08 15:05:27:927
7.9296,-5.8227,-0.5555,8.0002,-5.6497,-0.497,-0.0726,-0.2133,-0.0466,0.0128,0.0362,0.0043,-28.25,50.0,4.25,5.24,35.07,-93.53,19521,2015-10-08 15:05:28:027
7.9487,-5.7461,-0.5555,8.0078,-5.6412,-0.4717,-0.0591,-0.1049,-0.0838,-0.0107,0.13,-0.0575,-28.25,49.0,4.75,5.35,35.21,-93.46,19621,2015-10-08 15:05:28:127
7.9871,-5.7269,-0.5363,8.0097,-5.6388,-0.4677,-0.0226,-0.0881,-0.0686,0.0107,0.0192,-0.032,-28.75,49.25,5.0,8.16,35.15,-93.28,19721,2015-10-08 15:05:28:227
8.0445,-5.6695,-0.5171,7.9792,-5.6842,-0.4397,0.0439,0.0109,-0.1085,0.0383,-0.0447,0.1449,-28.75,49.5,5.25,8.0,35.26,-93.22,19821,2015-10-08 15:05:28:327
8.0062,-5.7269,-0.5171,7.9873,-5.6714,-0.4572,-2.0E-4,-0.0747,-0.0983,0.0511,0.0107,-0.0256,-27.75,50.0,5.0,7.96,35.36,-93.23,19921,2015-10-08 15:05:28:427
7.8721,-5.7652,-0.5363,7.9888,-5.6678,-0.4748,-0.0975,-0.1166,-0.0615,0.0533,-0.0341,-0.0639,-27.75,48.0,5.0,8.13,35.4,-93.27,20021,2015-10-08 15:05:28:527
7.9104,-5.7652,-0.498,7.9776,-5.6848,-0.4604,-0.0863,-0.0805,7.0E-4,-0.017,0.0788,0.0874,-26.75,48.0,5.0,8.2,35.33,-93.43,20122,2015-10-08 15:05:28:628
7.8913,-5.7461,-0.4405,7.9705,-5.6953,-0.4525,-0.0792,-0.0508,0.012,-0.0426,-0.0383,0.0767,-27.75,48.25,5.0,8.61,35.37,-93.16,20222,2015-10-08 15:05:28:728
7.9487,-5.7652,-0.5555,7.9489,-5.7224,-0.4885,-2.0E-4,-0.0428,-0.0669,0.0341,0.0852,-0.0234,-27.0,47.75,5.0,8.47,35.57,-93.26,20322,2015-10-08 15:05:28:828
7.9679,-5.7461,-0.5171,7.9331,-5.7432,-0.5022,0.0348,-0.0029,-0.015,0.0724,-0.0064,0.2003,-27.5,47.5,4.75,8.23,35.67,-93.55,20422,2015-10-08 15:05:28:928
7.9679,-5.7652,-0.5171,7.9504,-5.7167,-0.5307,0.0111,-0.058,-3.0E-4,0.0831,-0.081,-0.1981,-26.5,48.5,4.5,7.68,35.85,-93.76,20521,2015-10-08 15:05:29:027
7.9104,-5.7652,-0.5746,7.9525,-5.7126,-0.5417,-0.0613,-0.0909,-0.0329,0.0149,-0.0575,-0.0298,-28.0,48.25,4.75,7.83,35.61,-93.83,20621,2015-10-08 15:05:29:127
7.9296,-5.7652,-0.5363,7.9422,-5.7267,-0.5439,-0.0126,-0.0385,0.0076,0.0362,0.1342,0.0213,-27.5,48.25,4.5,7.87,35.64,-93.81,20721,2015-10-08 15:05:29:227
7.9487,-5.7078,-0.4788,7.9302,-5.7445,-0.5329,0.0186,0.0367,0.0541,0.0575,0.1001,0.0341,-27.75,48.25,4.75,7.93,35.86,-93.84,20821,2015-10-08 15:05:29:327
7.9296,-5.7078,-0.5171,7.9244,-5.7538,-0.5174,0.0052,0.046,3.0E-4,-0.0746,-0.066,-0.1193,-28.0,47.5,4.75,8.08,35.92,-93.74,20921,2015-10-08 15:05:29:427
7.9487,-5.7844,-0.4788,7.9279,-5.7477,-0.5318,0.0208,-0.0367,0.053,0.0277,0.0298,-0.1172,-28.75,48.75,4.75,7.7,35.88,-93.84,21021,2015-10-08 15:05:29:527
7.9679,-5.7269,-0.5363,7.9396,-5.7307,-0.5401,0.0283,0.0038,0.0038,-0.0107,-0.0618,0.0064,-28.5,47.75,4.25,5.37,35.72,-93.84,21121,2015-10-08 15:05:29:627
7.9487,-5.7652,-0.498,7.9468,-5.7211,-0.5367,0.002,-0.0633,4.0E-4,-0.0937,0.1001,-0.032,-29.0,49.5,4.75,7.34,35.69,-93.87,21221,2015-10-08 15:05:29:727
7.9104,-5.8035,-0.5363,7.9379,-5.7331,-0.5396,-0.0275,-0.0513,0.0799,-0.049,-0.0107,0.0341,-27.5,48.5,4.75,7.58,35.75,-93.88,21321,2015-10-08 15:05:29:827
7.9487,-5.7844,-0.4405,7.9418,-5.7289,-0.5274,0.007,-0.0555,0.0869,-0.0511,0.1065,-0.0447,-28.0,48.25,4.25,5.43,35.75,-93.8,21421,2015-10-08 15:05:29:927
7.9296,-5.7269,-0.5555,7.9366,-5.7351,-0.5383,-0.007,0.0081,-0.0172,0.0383,0.0554,0.0043,-29.0,48.75,5.25,7.62,35.79,-93.88,21521,2015-10-08 15:05:30:027
7.9679,-5.7078,-0.6129,7.9323,-5.7388,-0.5616,0.0366,0.0526,-0.0822,0.13,0.0277,-0.0831,-27.75,48.0,5.5,10.17,35.82,-94.05,21621,2015-10-08 15:05:30:127
7.9296,-5.7652,-0.5746,7.9479,-5.7163,-0.5704,-0.0183,-0.0489,-0.0042,0.0085,0.0298,-0.0597,-27.5,48.25,4.75,7.87,35.79,-93.85,21721,2015-10-08 15:05:30:227
7.9487,-5.7269,-0.5746,7.9515,-5.7083,-0.5995,-0.0044,-0.0187,0.023,0.0149,-0.1257,0.0362,-28.0,48.0,4.5,7.53,35.65,-94.1,21821,2015-10-08 15:05:30:327
7.9487,-5.7844,-0.5555,7.948,-5.7071,-0.6542,0.0069,-0.0307,0.0828,0.1129,-0.0405,-0.1214,-28.25,47.75,4.75,6.79,35.59,-94.71,21921,2015-10-08 15:05:30:427
7.9104,-5.7652,-0.6512,7.9438,-5.7136,-0.6492,-0.0334,-0.0517,-0.002,-0.0064,0.0895,0.017,-27.75,47.25,4.5,7.11,35.56,-94.65,22022,2015-10-08 15:05:30:528
7.9296,-5.7652,-0.6129,7.9249,-5.7367,-0.6758,-0.0145,-0.0094,-0.0138,0.0021,-0.1108,-0.0383,-28.5,47.5,4.5,6.87,35.64,-94.67,22122,2015-10-08 15:05:30:628
7.9104,-5.7078,-0.6321,7.9389,-5.7172,-0.6757,0.0325,-0.0058,0.0718,0.0724,0.0447,0.0213,-28.25,46.75,4.75,6.64,35.8,-94.87,22221,2015-10-08 15:05:30:727
7.8913,-5.7269,-0.5746,7.9207,-5.7372,-0.7195,-0.0368,0.0023,0.1273,0.017,-0.0618,0.1044,-27.5,47.0,5.25,6.86,35.66,-94.86,22321,2015-10-08 15:05:30:827
7.8913,-5.7844,-0.5938,7.924,-5.7372,-0.6819,-0.0327,-0.0472,0.0881,0.0192,-0.032,-0.0341,-27.5,47.5,6.0,8.97,35.88,-95.05,22421,2015-10-08 15:05:30:927
7.9296,-5.7652,-0.6321,7.9298,-5.7274,-0.697,-2.0E-4,-0.0379,0.0649,0.0383,-0.1044,0.0234,-28.25,47.25,6.25,9.26,35.77,-95.06,22521,2015-10-08 15:05:31:027
7.9487,-5.7652,-0.6704,7.9171,-5.7466,-0.6829,0.0125,5.0E-4,-0.0066,0.017,0.0192,-0.0511,-28.25,47.75,5.75,9.0,35.75,-94.99,22621,2015-10-08 15:05:31:127
7.9104,-5.7844,-0.7661,7.9306,-5.7215,-0.7355,-0.0149,-0.0542,-0.0418,-0.0149,-0.0831,-0.0767,-28.0,47.0,6.5,11.84,35.8,-95.07,22721,2015-10-08 15:05:31:227
7.9296,-5.8035,-0.7661,7.9264,-5.726,-0.7454,0.0046,-0.0739,-0.0337,-0.0085,-0.049,0.0149,-26.75,46.25,5.75,8.93,35.69,-95.3,22821,2015-10-08 15:05:31:327
7.9487,-5.7844,-0.8236,7.8962,-5.7578,-0.8179,0.0752,-0.0579,-0.06,-0.1491,-0.0746,0.0554,-27.5,46.0,6.0,8.95,36.03,-95.65,22921,2015-10-08 15:05:31:427
7.9871,-5.7461,-0.9768,7.887,-5.7614,-0.8781,0.1097,0.0227,-0.0612,-0.0213,-0.0916,-0.0937,-27.5,48.25,5.75,7.98,35.95,-95.91,23021,2015-10-08 15:05:31:527
7.9296,-5.7461,-1.0343,7.8552,-5.7832,-1.0105,0.0717,0.0326,-0.0191,-0.1257,0.0405,-0.0383,-27.25,47.25,6.0,6.87,36.09,-97.09,23121,2015-10-08 15:05:31:627
7.8913,-5.8419,-1.0151,7.8411,-5.7785,-1.1386,0.0408,-0.0702,0.0936,-0.147,0.0256,0.0511,-26.75,46.75,7.0,8.98,36.06,-97.47,23221,2015-10-08 15:05:31:727
7.8338,-5.7844,-1.1875,7.833,-5.7736,-1.2163,0.0391,-0.0491,0.2012,-0.0937,-0.0447,0.0724,-26.75,46.0,8.0,8.17,36.1,-98.26,23321,2015-10-08 15:05:31:827
7.9296,-5.7652,-1.3024,7.797,-5.7811,-1.3986,0.1326,0.035,0.0387,-0.115,-0.1044,0.0874,-25.75,47.0,9.5,13.76,36.09,-99.95,23422,2015-10-08 15:05:31:928
7.9104,-5.8035,-1.4174,7.7486,-5.8036,-1.5644,0.1723,0.0254,0.0223,-0.1108,-0.228,0.1001,-26.0,47.5,9.5,12.28,36.21,-100.9,23521,2015-10-08 15:05:32:027
7.9871,-5.7844,-1.7047,7.7106,-5.8127,-1.7118,0.2765,0.0283,0.0071,-0.2024,-0.2109,-0.0767,-26.5,46.75,10.0,12.15,36.29,-101.41,23622,2015-10-08 15:05:32:128
7.7189,-5.8802,-1.7621,7.7073,-5.7242,-2.0003,0.0499,-0.1177,0.219,-0.0831,-0.326,0.017,-25.25,46.75,11.25,11.71,36.04,-104.06,23721,2015-10-08 15:05:32:227
7.6998,-5.9376,-2.2601,7.6092,-5.7493,-2.2838,0.0714,-0.2074,0.0428,0.2493,-0.5177,-0.0256,-24.75,47.0,12.25,12.58,35.69,-105.32,23821,2015-10-08 15:05:32:327
7.4124,-5.8035,-2.7773,7.4863,-5.7967,-2.5544,-0.0738,-0.0069,-0.2229,0.3515,-0.7414,0.0021,-24.5,47.25,13.75,15.05,36.06,-107.96,23922,2015-10-08 15:05:32:428
7.2592,-5.6503,-2.8539,7.2883,-5.901,-2.8688,-0.0291,0.2506,0.0149,0.1981,-0.539,0.0575,-24.0,46.0,13.75,12.66,36.84,-110.77,24022,2015-10-08 15:05:32:528
7.0294,-5.7269,-2.3559,7.177,-5.9286,-3.0843,-0.1426,0.2072,0.6335,0.1278,-0.2152,-0.0064,-23.75,47.5,13.75,9.4,37.1,-112.84,24121,2015-10-08 15:05:32:627
6.6463,-5.5929,-2.5857,7.1445,-5.973,-3.0741,-0.4982,0.4376,0.4692,0.1619,0.0362,-0.0213,-22.25,47.25,15.25,9.95,37.31,-113.38,24221,2015-10-08 15:05:32:727
7.2975,-5.9185,-2.2218,7.1739,-6.0528,-2.8407,0.1428,0.1726,0.4465,0.2365,0.0192,-0.0149,-21.5,46.0,16.25,18.38,37.97,-112.29,24321,2015-10-08 15:05:32:827
7.2209,-6.1675,-2.8347,7.2708,-6.0669,-2.549,-0.1074,-0.0814,-0.3432,0.5071,0.147,-0.147,-21.5,47.25,16.0,20.15,38.2,-110.04,24421,2015-10-08 15:05:32:927
7.1826,-6.4165,-3.0837,7.3495,-6.0617,-2.3262,-0.1669,-0.3548,-0.7575,0.3963,-0.0128,-0.017,-21.0,46.75,14.0,17.27,38.2,-108.03,24521,2015-10-08 15:05:33:027
7.2401,-6.4931,-3.237,7.3302,-6.0991,-2.289,-0.1093,-0.394,-0.9671,0.1981,0.0405,-0.2535,-22.5,46.5,12.75,15.34,38.34,-107.27,24621,2015-10-08 15:05:33:127
7.1635,-6.3782,-3.0263,7.3257,-6.0415,-2.4507,-0.143,-0.2984,-0.5182,-0.1193,-0.2535,0.0021,-23.5,46.5,11.0,8.85,38.17,-108.07,24721,2015-10-08 15:05:33:227
6.9719,-6.0334,-2.6049,7.2972,-5.9795,-2.677,-0.4211,0.0036,0.053,-0.2003,-0.0916,-0.0937,-24.0,47.0,10.5,6.0,37.73,-109.81,24821,2015-10-08 15:05:33:327
7.0294,-5.861,-2.3559,7.2412,-6.0234,-2.7303,-0.1735,0.1623,0.3361,-0.0192,0.0852,0.0767,-24.0,47.25,10.75,5.16,37.71,-110.49,24921,2015-10-08 15:05:33:427
7.3933,-6.0142,-2.375,7.196,-6.0941,-2.6926,0.1926,0.0877,0.287,0.0874,0.0469,-0.0383,-23.5,48.25,11.5,8.17,38.18,-110.62,25021,2015-10-08 15:05:33:527
7.1635,-6.0334,-2.7964,7.2108,-6.1283,-2.5727,-0.0423,0.1048,-0.2331,0.1598,0.0831,-0.1044,-23.25,48.0,12.25,9.21,38.69,-109.87,25121,2015-10-08 15:05:33:627
7.2784,-6.11,-2.873,7.2334,-6.129,-2.5066,0.0509,0.0208,-0.3536,0.0149,0.0277,-0.0085,-22.5,49.5,11.25,7.51,38.74,-109.26,25221,2015-10-08 15:05:33:727
7.0102,-6.2058,-2.6815,7.2607,-6.0938,-2.5136,-0.2536,-0.1163,-0.1664,0.0554,-0.0213,-0.066,-23.25,48.0,10.5,7.51,38.42,-109.07,25321,2015-10-08 15:05:33:827
6.7995,-6.1483,-2.1644,7.2217,-6.1365,-2.522,-0.4338,-0.0317,0.3726,-0.0447,0.017,0.0916,-23.5,47.75,10.5,7.23,38.48,-109.33,25421,2015-10-08 15:05:33:927
7.3167,-6.0908,-1.9345,7.1438,-6.2856,-2.3723,0.0286,0.0668,0.549,0.3111,0.147,0.1768,-24.25,48.0,10.0,4.7,39.39,-108.88,25521,2015-10-08 15:05:34:027
7.4124,-6.0717,-2.0111,7.1534,-6.3554,-2.1465,0.2983,0.2264,0.0542,0.2727,0.326,-0.032,-23.25,48.5,10.75,10.59,40.4,-106.7,25621,2015-10-08 15:05:34:127
7.2784,-6.2058,-1.992,7.319,-6.278,-1.7861,-0.0406,0.0722,-0.2059,-0.0256,0.3643,-0.2045,-23.0,49.5,9.0,8.42,40.4,-105.89,25721,2015-10-08 15:05:34:227
7.4316,-6.2441,-1.7621,7.4579,-6.1809,-1.5318,-0.1029,-0.1015,-0.2495,-0.0554,0.424,-0.1321,-23.25,49.5,8.0,7.23,39.33,-102.43,25821,2015-10-08 15:05:34:327
7.2592,-6.2824,-1.0726,7.6024,-6.0643,-1.2642,-0.3432,-0.1989,0.0959,-0.1619,0.4858,-0.2003,-23.75,49.0,6.75,5.94,38.78,-100.86,25922,2015-10-08 15:05:34:428
7.3933,-6.2249,-1.0726,7.6478,-6.0631,-0.9599,-0.3311,-0.1427,-0.151,-0.0021,0.3963,0.1257,-24.5,48.75,5.75,7.24,38.19,-97.15,26021,2015-10-08 15:05:34:527
7.7189,-6.5697,-0.5555,7.6364,-6.1087,-0.7352,0.0634,-0.3652,-0.0309,-0.1214,0.3643,-0.0107,-25.25,48.75,4.75,5.58,38.5,-96.53,26121,2015-10-08 15:05:34:627
7.7381,-6.2824,-0.3639,7.5487,-6.2397,-0.5039,0.2256,0.0179,0.1177,0.1747,0.1044,0.2067,-25.25,49.5,4.75,8.41,39.51,-93.82,26221,2015-10-08 15:05:34:727
8.0828,-6.1292,-0.8428,7.4314,-6.3875,-0.3816,0.6515,0.2583,-0.4612,0.0213,0.196,0.245,-23.75,50.5,4.25,6.7,40.43,-93.04,26321,2015-10-08 15:05:34:827
8.0828,-6.2249,-0.2298,7.3973,-6.4241,-0.4254,0.6855,0.1992,0.1955,-0.3324,0.2258,0.0852,-23.75,51.25,3.75,6.77,40.84,-93.09,26421,2015-10-08 15:05:34:927
8.0637,-6.0334,-0.3448,7.4497,-6.3588,-0.487,0.614,0.3255,0.1423,-0.2045,-0.0426,-0.1577,-23.0,50.25,3.75,6.18,40.42,-93.74,26521,2015-10-08 15:05:35:027
7.9487,-6.2058,-0.1341,7.5729,-6.1993,-0.624,0.2683,-0.0801,0.4698,-0.3771,0.0192,-0.1811,-23.0,50.5,4.25,4.83,39.21,-94.71,26621,2015-10-08 15:05:35:127
7.7572,-6.5888,-0.0192,7.7194,-5.9943,-0.8057,-0.0084,-0.4819,0.5392,-0.4197,0.0916,-0.1981,-23.5,51.0,5.25,6.15,38.14,-95.52,26721,2015-10-08 15:05:35:227
7.5465,-6.1675,0.2873,7.783,-5.9067,-0.8407,-0.2743,-0.4723,0.9272,-0.4687,0.3665,0.017,-24.75,49.75,7.25,9.9,37.04,-96.17,26821,2015-10-08 15:05:35:327
6.9911,-5.9568,-0.8619,7.8528,-5.8346,-0.6791,-0.8548,-0.0561,-0.0802,-0.066,0.1704,-0.1662,-25.5,50.25,8.5,15.3,36.51,-94.94,26922,2015-10-08 15:05:35:428
7.4508,-5.8035,-1.0343,7.8346,-5.8653,-0.623,-0.3407,0.0487,-0.3127,-0.3941,0.3004,0.1023,-25.0,49.75,9.25,15.78,36.73,-94.55,27021,2015-10-08 15:05:35:527
7.5465,-5.9185,-0.7278,7.7984,-5.9189,-0.568,-0.2835,0.0882,-0.0515,-0.2983,0.2322,0.2407,-25.0,50.5,9.0,15.85,37.13,-94.17,27121,2015-10-08 15:05:35:627
7.604,-5.7078,-1.0726,7.755,-5.982,-0.496,-0.2044,0.3104,-0.6139,-0.2514,0.3174,-0.0149,-26.0,49.5,8.5,16.73,37.37,-93.9,27221,2015-10-08 15:05:35:727
7.7572,-5.7269,-0.5171,7.7065,-6.0512,-0.4048,0.0507,0.3242,-0.1123,-0.1662,0.2898,0.0597,-27.25,51.0,8.25,15.49,37.97,-93.23,27321,2015-10-08 15:05:35:827
7.9871,-6.0334,-0.5555,7.7134,-6.0501,-0.2649,0.143,0.1718,-0.125,-0.1129,0.1726,0.0362,-26.75,51.5,8.5,18.01,38.12,-92.74,27421,2015-10-08 15:05:35:927
8.734,-6.8187,-0.4405,7.7208,-6.042,-0.2319,1.014,-0.7754,-0.2154,-0.1726,0.2131,0.066,-27.0,52.5,8.5,18.31,38.05,-91.77,27521,2015-10-08 15:05:36:027
8.6574,-6.6655,-0.4214,7.7234,-6.0389,-0.2255,0.934,-0.6265,-0.1959,-0.2599,0.2301,-0.2237,-26.25,50.75,8.25,18.43,38.13,-91.69,27621,2015-10-08 15:05:36:127
7.7189,-6.2058,-0.7853,7.8039,-5.9325,-0.2742,-0.0849,-0.2732,-0.5111,-0.1065,-0.0085,-0.0916,-26.0,50.75,8.5,18.98,37.39,-91.81,27721,2015-10-08 15:05:36:227
7.7764,-6.1675,-0.7853,7.7968,-5.9319,-0.4379,-0.0205,-0.2355,-0.3474,-0.1598,-0.0788,0.1939,-26.5,50.75,9.0,17.43,37.15,-92.72,27822,2015-10-08 15:05:36:328
7.9296,-5.8993,-0.8619,7.695,-6.0404,-0.6863,0.2154,0.1027,-0.3097,-0.1385,-0.2919,0.0277,-26.75,51.25,9.5,18.55,37.8,-94.56,27921,2015-10-08 15:05:36:427
7.5848,-6.0142,-0.498,7.6852,-5.9897,-1.11,-0.1004,-0.0246,0.612,-0.3963,-0.1491,-0.1044,-26.25,49.25,11.25,17.96,37.65,-98.22,28021,2015-10-08 15:05:36:527
7.106,-6.3015,-0.3256,7.6879,-5.9373,-1.3475,-0.5819,-0.3643,1.0219,-0.1278,-0.2322,0.1278,-25.75,50.0,13.0,21.13,37.34,-98.8,28121,2015-10-08 15:05:36:627
7.7572,-5.7269,-1.0534,7.5605,-6.0935,-1.3705,0.1967,0.3666,0.317,0.017,0.0043,0.1321,-25.5,49.0,14.75,25.0,37.65,-100.23,28221,2015-10-08 15:05:36:727
8.0062,-6.2632,-1.1109,7.5525,-6.0983,-1.3932,0.3511,-0.3403,0.2197,0.1172,0.0724,0.0085,-24.5,48.75,16.0,27.55,38.56,-100.48,28322,2015-10-08 15:05:36:828
7.1251,-5.6312,-1.8771,7.5544,-6.1133,-1.3151,-0.4867,0.5971,-0.6385,0.3601,-0.2173,0.0937,-24.0,49.5,15.75,27.01,38.43,-99.98,28421,2015-10-08 15:05:36:927
7.4124,-5.7269,-1.3024,7.4426,-6.2308,-1.3982,0.0656,0.5805,0.1341,0.3174,-0.277,0.1683,-23.75,50.5,15.25,24.38,38.77,-100.08,28521,2015-10-08 15:05:37:027
7.5082,-5.5354,-1.6472,7.4089,-6.2802,-1.3554,0.1922,0.6864,-0.2456,0.5284,-0.326,-0.0959,-23.5,48.5,15.0,26.21,39.75,-100.47,28621,2015-10-08 15:05:37:127
7.3933,-5.9185,-1.4365,7.3997,-6.3295,-1.163,0.1277,0.2578,-0.0436,1.1313,-0.686,0.098,-22.5,50.75,13.25,20.93,39.89,-99.69,28721,2015-10-08 15:05:37:227
7.7381,-6.2632,-1.5514,7.3477,-6.4325,-0.8975,0.2563,0.1501,-0.8072,1.4935,-0.8607,-0.1427,-21.75,51.75,11.25,21.13,40.2,-98.93,28821,2015-10-08 15:05:37:327
6.6463,-6.5314,-0.5363,7.369,-6.4305,-0.7194,-0.6461,-0.1584,0.1639,1.0908,-0.7052,-0.2578,-21.25,51.0,6.5,11.0,40.94,-96.08,28921,2015-10-08 15:05:37:427
5.5545,-6.4931,0.8811,7.2345,-6.6139,-0.2973,-1.7424,0.0471,1.2703,1.3145,-0.686,0.2642,-21.5,50.0,1.75,4.87,40.89,-95.23,29021,2015-10-08 15:05:37:527
7.7189,-8.4276,1.743,6.8314,-7.0347,0.1274,0.7852,-1.4926,1.7256,1.9217,-1.3337,0.6818,-22.25,49.75,-2.0,357.58,42.41,-92.35,29121,2015-10-08 15:05:37:627
7.0868,-6.5697,1.4557,6.5949,-7.2414,0.4902,0.6417,0.883,0.846,1.2677,-0.7883,0.3558,-21.25,49.75,-7.5,342.46,47.25,-86.67,29224,2015-10-08 15:05:37:730
8.6,-6.9528,0.4022,6.5525,-7.2503,0.8174,2.0474,0.2975,-0.4151,0.8032,-0.5859,0.1321,-20.75,49.75,-12.75,336.81,47.83,-84.51,29321,2015-10-08 15:05:37:827
7.7955,-7.0485,1.6281,6.8681,-6.9385,0.9256,0.9274,-0.1101,0.7025,0.4559,-0.1577,-0.6328,-20.75,49.25,-16.5,323.2,45.92,-82.74,29421,2015-10-08 15:05:37:927
6.4739,-7.0485,0.5363,7.2447,-6.504,1.176,-0.6941,-0.4871,-1.0419,0.8075,-0.7457,-0.1491,-23.25,47.0,-17.5,322.9,42.58,-80.98,29521,2015-10-08 15:05:38:027
7.106,-6.857,0.4405,7.3644,-6.3948,1.021,-0.2584,-0.4622,-0.5805,-0.1236,-0.4027,-0.2621,-26.0,43.75,-19.0,314.3,40.8,-81.77,29621,2015-10-08 15:05:38:127
7.0102,-7.1635,1.2833,7.4895,-6.2927,0.6929,-0.3867,-0.87,0.5186,-0.1726,-0.2748,-0.1023,-28.75,42.5,-19.75,307.48,40.15,-83.97,29721,2015-10-08 15:05:38:227
6.857,-6.4356,2.0111,7.4782,-6.3312,0.4048,-0.6212,-0.1044,1.6063,-0.0128,0.2812,-0.0277,-31.25,41.0,-19.25,304.41,39.91,-85.4,29821,2015-10-08 15:05:38:327
7.3741,-6.4739,0.1915,7.5012,-6.3124,0.2373,-0.127,-0.1615,-0.0457,0.3132,-0.5689,-0.032,-33.0,40.0,-18.5,298.08,40.23,-86.82,29921,2015-10-08 15:05:38:427
8.0828,-6.11,0.5171,7.4672,-6.3548,0.1663,0.1051,0.1729,0.7243,0.4389,-0.3622,0.228,-34.5,38.0,-17.75,294.21,40.07,-88.19,30021,2015-10-08 15:05:38:527
7.7955,-6.2058,0.6704,7.6269,-6.1632,0.1231,-0.0294,-0.3384,0.2738,0.2663,-0.2429,-0.4751,-35.5,38.0,-18.25,287.9,40.18,-88.97,30122,2015-10-08 15:05:38:628
7.4699,-6.9336,0.1341,7.9913,-5.6828,0.1237,-0.5439,-1.3782,0.0749,-0.1726,0.0298,-0.5369,-37.25,35.25,-18.75,288.15,36.41,-88.98,30222,2015-10-08 15:05:38:728
7.5274,-6.7421,0.4597,8.2023,-5.3662,0.3116,-0.6749,-1.3758,0.1481,0.4602,-0.1981,-0.3238,-38.75,30.5,-19.0,283.57,33.18,-87.82,30321,2015-10-08 15:05:38:827
7.2018,-6.1483,-0.1149,8.2495,-5.2891,0.3769,-0.909,-0.8712,-0.5878,1.078,-0.5156,0.0021,-40.25,27.75,-20.5,278.77,32.78,-87.62,30422,2015-10-08 15:05:38:928
8.5808,-5.6886,-0.8236,8.1286,-5.4782,0.2931,0.3232,-0.271,-1.0048,1.0205,-0.6732,0.2365,-41.75,24.5,-21.5,261.46,33.62,-87.64,30521,2015-10-08 15:05:39:027
7.9679,-5.7269,0.0192,8.1311,-5.4766,0.2504,-0.3356,-0.327,-0.1546,0.5071,-0.3558,-0.0916,-43.0,22.75,-21.5,254.79,34.06,-88.32,30621,2015-10-08 15:05:39:127
8.2935,-6.5314,-0.0383,8.0745,-5.5606,0.2302,0.1807,-1.1049,-0.1535,0.9183,-0.571,0.2301,-44.25,19.25,-21.25,244.0,34.54,-88.37,30721,2015-10-08 15:05:39:227
8.1211,-5.4588,-0.4788,7.9752,-5.7048,0.1453,0.1459,0.246,-0.6241,0.8799,-0.8735,0.1917,-45.5,17.25,-20.5,236.78,35.57,-88.96,30821,2015-10-08 15:05:39:327
8.0828,-5.5545,0.9194,7.9892,-5.687,-0.0132,0.0936,0.1325,0.9326,0.4091,-0.1108,-0.2557,-47.25,15.0,-19.25,231.79,35.44,-90.09,30921,2015-10-08 15:05:39:427
7.2018,-5.8802,1.1875,8.0282,-5.6315,0.0664,-0.7498,-0.2487,1.0168,0.6839,-0.3963,0.0064,-47.5,15.0,-18.25,229.18,35.14,-89.8,31021,2015-10-08 15:05:39:527
8.5425,-5.8227,0.4405,7.9758,-5.7039,0.1514,0.5667,-0.1188,0.2891,0.6477,-0.4091,-0.0128,-48.75,13.5,-17.5,222.89,35.57,-88.91,31121,2015-10-08 15:05:39:627
7.6806,-5.9568,-0.0383,8.0891,-5.5346,0.3255,-0.4085,-0.4222,-0.3638,0.3835,-0.1257,-0.2471,-49.25,10.75,-17.0,218.24,34.76,-87.87,31221,2015-10-08 15:05:39:727
7.2975,-6.2058,0.1149,8.1302,-5.4723,0.3529,-0.8327,-0.7335,-0.238,0.2727,-0.2152,-0.1704,-49.25,9.5,-16.0,215.53,33.92,-87.51,31321,2015-10-08 15:05:39:827
8.0062,-6.2249,-0.1724,7.8821,-5.8312,0.1995,0.1241,-0.3937,-0.3719,0.2237,-0.3132,0.2429,-50.5,9.0,-15.25,211.28,35.58,-88.16,31421,2015-10-08 15:05:39:927
8.0254,-6.359,-0.1149,7.7077,-6.0632,0.0015,0.3177,-0.2958,-0.1164,0.0788,-0.2194,0.2386,-51.0,8.75,-14.0,209.77,38.19,-89.99,31521,2015-10-08 15:05:40:027
7.8913,-6.0142,-0.0383,7.5748,-6.2261,-0.1711,0.2891,0.3777,0.1523,-0.1364,0.0447,0.1491,-50.25,9.25,-13.25,209.87,39.41,-91.29,31621,2015-10-08 15:05:40:127
7.4124,-6.0142,0.0958,7.5733,-6.2235,-0.2888,-0.1361,0.2309,0.3665,-0.2621,0.0959,-0.1513,-51.25,11.5,-12.5,209.81,39.64,-91.85,31721,2015-10-08 15:05:40:227
7.355,-6.4165,-0.1532,7.6331,-6.1486,-0.3174,-0.4888,-0.3636,0.2983,0.0277,-0.0298,-0.0469,-50.25,12.25,-12.25,213.0,38.83,-92.38,31821,2015-10-08 15:05:40:327
7.6998,-6.1483,-0.3639,7.6254,-6.1579,-0.3222,0.0552,0.0288,0.0157,0.049,0.0277,-0.1236,-50.25,11.0,-12.25,212.09,38.9,-92.42,31921,2015-10-08 15:05:40:427
7.355,-6.2824,0.0383,7.6965,-6.0692,-0.3139,-0.3415,-0.2132,0.3522,-0.0085,0.0234,-0.2067,-50.25,10.75,-12.25,212.62,38.34,-92.43,32021,2015-10-08 15:05:40:527
7.4891,-5.861,0.249,7.7072,-6.059,-0.2403,-0.3331,0.1788,0.451,0.3409,-0.1662,-0.0959,-50.5,10.0,-13.0,212.55,38.23,-92.34,32121,2015-10-08 15:05:40:627
7.853,-5.6886,0.3256,7.7106,-6.059,-0.071,0.1424,0.3704,0.435,0.4091,-0.0341,-0.0362,-51.0,9.5,-12.0,210.34,38.19,-91.44,32222,2015-10-08 15:05:40:728
7.4891,-6.1292,0.3448,7.7824,-5.9605,0.2779,-0.2742,-0.3027,0.1243,0.735,-0.0959,-0.1981,-51.25,9.25,-13.0,204.86,37.43,-87.95,32322,2015-10-08 15:05:40:828
8.1786,-6.5314,0.2107,7.7151,-6.0361,0.4606,0.4719,-0.4855,-0.263,0.8884,-0.3878,0.1023,-50.75,6.25,-13.0,203.8,37.52,-87.43,32421,2015-10-08 15:05:40:927
7.853,-6.359,0.3639,7.6464,-6.1127,0.5816,0.2544,-0.216,-0.1678,0.8799,-0.6605,0.098,-51.5,5.75,-12.75,198.78,38.27,-86.17,32521,2015-10-08 15:05:41:027
8.1977,-6.2058,0.249,7.5944,-6.1724,0.6298,0.6449,-0.0098,-0.4727,0.8756,-0.6818,0.0298,-52.0,4.0,-11.5,192.49,39.01,-85.26,32621,2015-10-08 15:05:41:127
8.2935,-6.2249,0.3831,7.6373,-6.1242,0.5791,0.6369,-0.0616,-0.2052,0.6072,-0.4261,-0.0895,-53.5,4.5,-10.25,191.06,38.84,-85.5,32721,2015-10-08 15:05:41:227
7.9679,-6.0525,0.2873,7.7508,-5.9919,0.4388,0.2171,-0.0607,-0.1515,0.5113,-0.5135,-0.2407,-54.5,4.75,-7.5,186.8,38.16,-86.34,32821,2015-10-08 15:05:41:327
7.7572,-5.8419,0.3256,7.878,-5.836,0.2225,-0.1207,-0.0059,0.1031,0.1236,-0.343,-0.294,-54.75,3.0,-4.75,185.39,36.86,-87.81,32921,2015-10-08 15:05:41:427
7.7572,-6.3973,0.4214,8.0716,-5.5692,-0.0615,-0.3144,-0.8281,0.4829,-0.0597,-0.2386,-0.3601,-54.75,2.0,-1.75,182.8,35.56,-89.46,33021,2015-10-08 15:05:41:527
6.9336,-6.1292,0.8811,8.1385,-5.4672,-0.2104,-1.2049,-0.6619,1.0915,0.0447,-0.2578,-0.0426,-55.0,0.75,0.0,180.79,34.6,-90.44,33121,2015-10-08 15:05:41:627
7.9296,-6.1292,-0.2873,8.0762,-5.5512,-0.3601,-0.0467,-0.5734,0.0743,0.1449,-0.1704,0.0298,-54.5,-1.0,0.0,183.76,34.29,-92.18,33221,2015-10-08 15:05:41:727
7.0102,-5.8802,-0.3256,8.0271,-5.6155,-0.4496,-1.0169,-0.2647,0.124,0.0234,-0.0064,0.0298,-53.5,-1.75,1.5,181.59,34.89,-93.12,33321,2015-10-08 15:05:41:827
7.4124,-6.4931,-0.7853,7.8972,-5.7966,-0.4515,-0.4848,-0.6965,-0.3338,0.0383,0.0107,0.4048,-53.5,0.0,1.5,181.83,35.58,-93.22,33421,2015-10-08 15:05:41:927
7.9296,-6.0142,-0.8619,7.5594,-6.2307,-0.4526,0.628,0.3149,-0.5974,0.4772,-0.473,0.637,-54.0,-0.25,2.0,182.07,37.06,-93.44,33521,2015-10-08 15:05:42:027
8.3893,-5.7652,-1.8004,7.1308,-6.7059,-0.595,1.2013,0.9597,-1.3065,0.4474,-0.5113,0.5646,-54.5,1.5,2.5,181.16,41.65,-93.92,33621,2015-10-08 15:05:42:127
7.6423,-6.0334,-1.6089,6.9433,-6.881,-0.7829,0.6717,0.8793,-0.6899,0.5135,-0.6072,0.3196,-55.25,5.75,4.25,180.97,43.14,-94.77,33721,2015-10-08 15:05:42:227
6.7804,-6.5505,-1.3216,6.9172,-6.8789,-1.0024,-0.1368,0.3283,-0.3192,0.0533,-0.4431,-0.0149,-54.0,7.0,6.75,180.25,44.66,-97.54,33821,2015-10-08 15:05:42:327
7.1635,-7.0677,-0.8236,6.9181,-6.8506,-1.1746,0.2454,-0.2171,0.351,-0.0703,-0.2407,-0.0426,-53.25,9.25,9.5,179.42,44.54,-98.25,33921,2015-10-08 15:05:42:427
6.5697,-7.1251,-0.7087,7.0846,-6.6713,-1.2136,-0.5915,-0.4921,0.3708,-0.081,0.0107,-0.3111,-53.25,9.0,11.5,174.83,43.52,-99.81,34021,2015-10-08 15:05:42:527
6.5505,-7.1635,-1.0343,7.1825,-6.5688,-1.1972,-0.6128,-0.6138,0.0672,0.0746,0.1257,-0.2003,-53.75,7.0,11.25,176.72,42.26,-99.61,34121,2015-10-08 15:05:42:627
6.6846,-6.8761,-1.4557,7.1704,-6.5834,-1.1889,-0.5241,-0.2544,-0.3051,-0.0639,-0.0554,0.0703,-54.0,5.75,11.0,176.0,42.02,-99.16,34221,2015-10-08 15:05:42:727
6.7229,-6.3015,-1.2833,7.1378,-6.618,-1.1933,-0.4724,0.1058,-0.1092,-0.1854,0.1129,-0.0746,-53.75,5.5,11.25,176.6,42.44,-99.49,34321,2015-10-08 15:05:42:827
7.8147,-6.2249,-1.2833,7.248,-6.4912,-1.2255,0.6239,0.3278,-0.0487,-0.4346,0.4879,-0.3153,-53.25,7.25,11.75,174.81,42.04,-99.77,34421,2015-10-08 15:05:42:927
7.0868,-7.0868,-1.1301,7.4595,-6.2574,-1.1712,-0.3946,-0.8545,0.0345,-0.2067,0.2791,-0.2919,-54.0,6.0,10.75,175.77,40.13,-99.14,34521,2015-10-08 15:05:43:027
6.9528,-7.0868,-0.5746,7.413,-6.3196,-1.1316,-0.5177,-0.3842,0.5187,0.1704,-0.1342,0.5071,-54.25,4.5,9.0,178.58,39.5,-98.66,34621,2015-10-08 15:05:43:127
8.4659,-6.2632,-1.5514,7.0934,-6.6866,-1.0693,1.181,0.3659,-0.1374,0.5412,-0.2791,0.5156,-54.0,4.0,8.75,178.67,40.12,-98.68,34721,2015-10-08 15:05:43:227
7.6998,-6.0525,-1.9537,6.946,-6.8428,-1.0482,1.0882,0.7996,-0.9669,0.0874,-0.0682,0.1854,-54.75,6.75,9.0,178.7,44.12,-98.51,34821,2015-10-08 15:05:43:327
7.0677,-5.7269,-1.6281,6.8077,-6.9748,-1.0854,0.3125,1.3155,-0.4129,0.1832,-0.3771,0.3451,-54.5,9.75,9.5,176.82,44.48,-98.63,34922,2015-10-08 15:05:43:428
7.3358,-5.8035,-0.9194,6.551,-7.2052,-1.1576,0.8133,1.4262,0.2841,0.3345,-0.2301,0.2173,-54.0,9.75,10.25,178.98,46.65,-99.87,35021,2015-10-08 15:05:43:527
7.5274,-6.5505,-0.6512,6.4771,-7.295,-1.0004,1.0299,0.8151,0.4416,0.4708,-0.0213,0.1214,-53.5,10.75,10.5,179.37,47.68,-100.11,35121,2015-10-08 15:05:43:627
7.6806,-7.4891,-1.0343,6.5071,-7.303,-0.7032,1.1735,-0.1861,-0.3311,0.3963,0.0383,0.1129,-52.0,11.5,11.25,174.78,48.06,-98.78,35222,2015-10-08 15:05:43:728
6.3207,-6.4356,-0.3065,6.6137,-7.2253,-0.4729,0.5881,0.2151,-0.2166,0.0937,0.1726,-0.2642,-51.25,12.25,11.0,167.23,48.19,-95.61,35321,2015-10-08 15:05:43:827
6.3398,-6.7804,-0.1724,6.7826,-7.08,-0.2013,-0.6918,0.3187,0.1247,0.9012,-0.7116,0.017,-50.75,11.5,10.5,162.82,46.4,-92.29,35421,2015-10-08 15:05:43:927
7.8721,-7.3741,0.5555,6.9195,-6.9463,-0.2001,1.0293,-0.2363,0.4299,-0.1854,-0.1278,-0.5944,-50.5,10.5,10.75,161.08,45.1,-91.66,35522,2015-10-08 15:05:44:028
6.7804,-7.2209,2.1261,7.4569,-6.3679,-0.1234,-0.6207,-0.8252,2.4469,-0.0937,0.1854,-0.62,-50.5,10.25,11.5,157.77,41.4,-91.67,35621,2015-10-08 15:05:44:127
6.4931,-7.3167,1.3599,7.73,-6.0343,0.0663,-1.237,-1.2824,1.2936,0.1577,0.0959,-0.5262,-50.75,7.0,11.75,154.01,39.48,-90.28,35721,2015-10-08 15:05:44:227
6.9528,-6.7995,0.8619,7.8397,-5.8858,0.2587,-0.9061,-0.7988,0.6798,0.1619,-0.0618,-0.1641,-51.25,3.0,11.25,155.62,36.88,-88.11,35821,2015-10-08 15:05:44:327
8.102,-6.3207,0.0766,7.8215,-5.9089,0.2832,0.1081,-0.5272,0.1671,0.4091,-0.6093,-0.2194,-52.0,1.25,10.75,156.59,37.14,-87.66,35921,2015-10-08 15:05:44:427
8.1594,-6.11,-0.9768,7.8998,-5.8069,0.2076,0.2596,-0.3031,-1.1844,-0.245,0.277,-0.2621,-52.0,1.75,11.75,155.16,36.92,-88.09,36021,2015-10-08 15:05:44:527
7.2592,-6.3973,-0.3065,7.9346,-5.7624,0.0849,-0.7546,-0.5351,-0.5004,-0.7393,0.3068,0.1491,-51.75,1.25,12.75,155.44,35.99,-89.39,36121,2015-10-08 15:05:44:627
8.6766,-8.1403,0.3065,7.6229,-6.1579,-0.3765,1.0537,-1.9823,0.6829,-0.8543,0.032,0.6221,-52.0,0.5,11.75,161.61,37.64,-91.79,36221,2015-10-08 15:05:44:727
7.2209,-4.8459,0.4405,7.0584,-6.7943,-0.4331,0.1625,1.9484,0.8736,-0.0852,0.147,0.9843,-51.75,0.0,11.25,165.25,40.44,-93.55,36321,2015-10-08 15:05:44:827
8.3318,-5.6312,-2.1644,6.5984,-7.2227,-0.6815,2.0782,1.5532,-1.4063,-0.4581,-0.2493,0.5412,-51.5,4.75,10.5,167.56,46.49,-93.91,36421,2015-10-08 15:05:44:927
8.4467,-6.0908,-0.8236,6.7166,-7.0547,-1.1349,1.7301,0.9639,0.3113,-1.8323,1.2868,-0.3473,-50.25,7.25,11.25,172.56,47.49,-97.5,36521,2015-10-08 15:05:45:027
5.9568,-6.2249,-1.5706,7.5336,-6.1464,-1.2795,-1.5768,-0.0786,-0.2911,-0.5284,0.522,-0.9417,-50.0,8.25,9.5,176.41,43.96,-100.37,36621,2015-10-08 15:05:45:127
5.5929,-5.7461,-3.5243,7.8271,-5.7758,-1.2439,-2.2342,0.0297,-2.2804,-1.3209,0.6562,-0.0192,-50.75,3.5,6.75,181.96,36.48,-98.86,36721,2015-10-08 15:05:45:227
7.1826,-6.2249,-0.4214,7.7635,-5.7998,-1.5032,-0.5235,-0.4059,1.1393,-0.6328,0.3856,0.3941,-52.25,2.25,4.25,191.27,35.82,-100.7,36821,2015-10-08 15:05:45:327
7.0102,-5.2672,-1.2258,7.4313,-6.252,-1.3634,-0.4977,0.9848,0.195,-0.0426,0.3622,0.6988,-51.5,2.5,1.25,196.32,38.28,-100.64,36921,2015-10-08 15:05:45:427
9.3853,-6.9145,-1.3791,6.8577,-6.9307,-1.0527,2.5276,0.0162,-0.3264,0.6541,0.0533,1.0376,-49.75,4.5,-0.5,195.63,42.61,-99.57,37021,2015-10-08 15:05:45:527
10.7069,-6.3015,-1.8004,6.4351,-7.3583,-0.7847,3.3903,1.7673,-0.1745,0.3537,0.1214,0.5007,-49.0,9.75,-0.75,193.08,48.62,-96.95,37121,2015-10-08 15:05:45:627
8.1403,-5.0182,-0.5938,6.8058,-7.03,-0.6568,1.3345,2.0117,0.063,0.8906,-0.9694,-0.5625,-47.5,13.25,-0.25,190.02,47.46,-95.54,37221,2015-10-08 15:05:45:727
9.4619,-6.8953,-0.3639,7.3769,-6.3981,-0.9036,2.085,-0.4972,0.5396,0.4985,-1.0567,-1.1782,-47.25,12.5,0.0,191.86,44.2,-95.79,37321,2015-10-08 15:05:45:827
9.347,-7.0102,0.0383,8.0717,-5.4215,-1.2747,1.2752,-1.5887,1.313,-0.718,0.0959,-1.6703,-48.75,8.25,3.75,190.24,33.56,-98.97,37421,2015-10-08 15:05:45:927
6.3973,-7.2975,1.4748,9.0089,-3.7744,-0.8739,-2.6116,-3.5231,2.3488,-0.8394,0.7713,-1.681,-49.75,3.25,5.25,182.34,24.83,-96.57,37521,2015-10-08 15:05:46:027
5.363,-6.2441,0.0575,9.2557,-3.1843,-0.602,-3.8927,-3.0597,0.6594,-0.2088,0.3643,-0.5539,-50.25,-3.75,3.75,177.87,18.95,-93.72,37621,2015-10-08 15:05:46:127
5.5162,-5.9185,-0.9768,9.1614,-3.4821,-0.3371,-3.6452,-2.4364,-0.6397,-0.6924,0.5156,0.5561,-49.75,-9.0,1.5,179.65,20.8,-92.11,37721,2015-10-08 15:05:46:227
8.5617,-10.094,-0.8236,8.3748,-5.0782,-0.4961,-1.015,-3.6146,-0.9829,-2.0709,0.5177,1.7257,-49.5,-8.25,-1.25,185.53,27.53,-92.19,37821,2015-10-08 15:05:46:327
9.9407,-7.5657,1.992,6.8596,-6.9417,-0.9639,3.6542,0.7269,3.1112,-1.0077,0.4304,3.1063,-48.5,1.0,-3.5,191.31,35.55,-95.08,37921,2015-10-08 15:05:46:427
10.7643,-3.6392,-1.6472,5.7354,-7.8987,-0.9419,5.029,4.2595,-0.7053,0.4708,-0.9204,0.8565,-45.5,13.25,-5.5,204.04,53.65,-99.33,38021,2015-10-08 15:05:46:527
9.6343,-6.3015,0.4022,6.1074,-7.5476,-1.3798,2.9009,1.6055,1.92,-1.3401,1.0312,-0.4048,-44.0,18.0,-5.5,209.71,53.14,-100.78,38121,2015-10-08 15:05:46:627
6.8378,-6.3398,0.0575,7.2165,-6.5677,-0.9788,-0.1418,0.5917,1.144,-1.3337,2.0197,-1.0759,-42.0,23.25,-4.0,222.65,44.11,-99.55,38221,2015-10-08 15:05:46:727
6.5314,-6.359,-0.0192,7.6076,-6.1789,-0.3393,-1.0578,-0.1644,0.4292,0.5071,0.1513,-0.1832,-41.5,21.75,-7.5,228.58,39.33,-93.88,38321,2015-10-08 15:05:46:827
6.6463,-5.8993,-4.1372,7.2258,-6.6286,0.1454,-0.7063,0.5886,-4.2666,1.8919,-1.2016,1.1569,-42.25,20.5,-11.0,217.87,42.53,-88.85,38421,2015-10-08 15:05:46:927
8.5042,-6.2058,-3.0837,6.4707,-7.3641,-0.2669,1.8487,0.9953,-2.9439,0.9523,-1.6085,1.306,-43.0,19.0,-11.5,212.2,44.66,-89.43,38521,2015-10-08 15:05:47:027
11.7795,-7.1635,-1.1875,5.915,-7.7854,-0.7553,5.7213,0.128,-0.9796,0.7989,-2.1604,0.4623,-43.25,20.5,-10.5,216.38,48.67,-92.36,38621,2015-10-08 15:05:47:127
8.351,-4.6352,0.1724,6.4742,-7.2247,-1.4347,1.6469,1.9192,1.9518,0.1747,-1.2932,-1.3699,-43.0,24.25,-6.25,215.05,52.55,-97.28,38721,2015-10-08 15:05:47:227
9.347,-8.351,1.5897,7.161,-6.3856,-2.0287,2.6015,-1.9784,3.4902,0.4261,-1.796,-1.3167,-44.5,23.75,0.0,222.08,47.45,-102.49,38822,2015-10-08 15:05:47:328
10.8793,-7.604,1.4365,7.7463,-5.4214,-2.6027,3.2329,-2.0314,4.0152,-0.6541,-0.3579,-2.2562,-47.5,18.0,6.25,216.26,40.63,-105.82,38922,2015-10-08 15:05:47:428
6.9719,-8.4084,2.2027,9.0382,-3.2576,-1.9671,-2.1548,-5.3494,4.0777,-0.3643,0.9055,-2.6035,-49.75,13.5,13.75,176.9,24.54,-105.11,39022,2015-10-08 15:05:47:528
4.9799,-6.7038,1.5131,9.5105,-2.0474,-1.2363,-4.5351,-4.686,2.7634,1.2378,0.3217,-1.4275,-51.25,0.0,14.75,159.27,19.4,-102.28,39122,2015-10-08 15:05:47:628
4.4436,-5.4205,-2.988,9.6046,-1.5184,-1.2711,-5.0968,-3.8957,-1.8306,0.8288,-0.1896,-0.1811,-49.5,-10.75,11.25,165.06,9.73,-96.77,39221,2015-10-08 15:05:47:727
5.8993,-7.2784,-2.1261,9.3752,-2.6666,-1.0791,-2.9556,-4.1244,-1.1291,-0.8288,1.3039,2.5886,-48.25,-16.5,13.0,165.87,12.09,-97.6,39322,2015-10-08 15:05:47:828
7.5465,-7.0102,0.0383,8.1318,-5.4682,-0.3786,0.0108,-1.4079,0.7223,-0.8181,0.8693,3.6411,-48.5,-16.25,13.0,165.12,15.78,-96.57,39422,2015-10-08 15:05:47:928
14.9207,-6.3398,-0.7853,6.135,-7.6455,-0.2795,8.7857,1.3057,-0.5058,0.9566,-1.3593,2.6227,-51.25,-5.5,6.25,168.37,33.89,-92.67,39522,2015-10-08 15:05:48:028
6.8378,-5.4971,-1.4174,6.4509,-7.3862,0.013,0.387,1.8892,-1.4303,-1.4956,2.6866,-0.196,-49.25,10.0,5.0,176.21,52.11,-92.86,39622,2015-10-08 15:05:48:128
7.0102,-5.5929,0.1341,6.3794,-7.4478,0.0624,0.6308,1.8549,0.0717,-0.0724,-0.2535,0.5603,-48.25,15.75,1.25,166.66,48.48,-88.63,39721,2015-10-08 15:05:48:227
9.7683,-5.3822,-2.1835,6.198,-7.5949,0.2692,3.807,2.4184,-1.9036,1.3742,-1.1356,0.1193,-47.75,18.0,-2.0,181.94,51.22,-88.67,39821,2015-10-08 15:05:48:327
8.4276,-6.4165,-0.747,6.7793,-7.0848,0.1271,2.1244,0.791,-0.9866,0.833,-0.9715,-0.7563,-48.25,18.75,-1.25,179.81,50.76,-87.51,39921,2015-10-08 15:05:48:427
8.2552,-7.1251,0.3639,7.2423,-6.6116,-0.0703,1.2168,-1.0152,0.1645,0.7457,-0.9417,-0.4282,-48.5,18.75,0.5,176.88,43.34,-89.95,40021,2015-10-08 15:05:48:527
8.6766,-5.8802,-0.1149,7.529,-6.2753,-0.3251,1.1476,0.3951,0.2102,0.6136,-1.1675,-0.6626,-49.25,16.5,3.75,173.14,40.78,-91.97,40121,2015-10-08 15:05:48:627
8.7532,-8.2169,1.0534,8.0527,-5.5523,-0.7043,0.1833,-1.2089,1.6811,0.2898,-0.7798,-1.4466,-49.75,13.25,8.5,171.1,38.5,-93.54,40221,2015-10-08 15:05:48:727
8.8873,-8.3318,2.5474,8.7351,-4.3205,-1.0963,0.1081,-4.158,3.7289,0.1491,-0.9374,-1.5425,-49.0,8.0,13.75,154.49,28.22,-96.92,40321,2015-10-08 15:05:48:827
5.9376,-9.0405,2.7964,9.2809,-3.081,-0.7364,-3.3433,-5.9595,3.5329,1.534,-0.1896,-1.4999,-47.75,0.25,17.25,143.9,19.91,-95.56,40421,2015-10-08 15:05:48:927
4.1563,-7.5465,-0.0575,9.3353,-2.9686,-0.4593,-5.3036,-4.4086,0.2076,1.6149,-0.0362,0.4005,-46.25,-7.25,20.0,139.68,17.62,-92.82,40521,2015-10-08 15:05:49:027
9.3087,-6.7229,-0.498,8.6238,-4.6679,-0.1047,0.6849,-2.055,-0.3933,0.5646,-0.5518,1.3614,-44.75,-8.5,23.0,138.66,19.21,-91.67,40622,2015-10-08 15:05:49:128
14.8632,-4.2904,-1.5131,8.3456,-5.1445,-0.2369,6.5176,0.8541,-1.2762,-0.8671,0.7372,0.2429,-45.25,-2.5,23.5,138.7,31.67,-91.79,40721,2015-10-08 15:05:49:227
10.343,1.1875,-0.0958,8.7205,-4.4755,-0.3043,1.6224,5.663,0.2086,-0.2088,0.3004,-0.8139,-44.75,1.75,24.5,131.1,29.06,-91.9,40822,2015-10-08 15:05:49:328
7.5274,-1.3024,-1.7813,9.2308,-3.3042,-0.2105,-2.0208,2.8293,-1.5249,0.1854,0.1342,-0.9992,-45.25,0.0,23.5,126.01,21.3,-91.52,40922,2015-10-08 15:05:49:428
6.9336,-5.1332,-1.992,9.4453,-2.6077,-0.3952,-2.0017,-2.2264,-0.6706,0.6562,-0.6413,-0.8863,-45.75,-3.75,21.75,129.38,19.69,-91.31,41023,2015-10-08 15:05:49:529
8.1786,-3.6966,-1.9154,9.4726,-2.4928,-0.4746,-1.294,-1.2038,-1.4407,-0.0852,0.0149,-0.0213,-44.0,-6.25,22.25,129.8,14.96,-92.88,41122,2015-10-08 15:05:49:628
9.5002,-1.1109,-1.0726,9.4947,-2.4279,-0.3562,0.0055,1.317,-0.7164,0.6754,-0.0362,0.0341,-43.5,-9.0,21.5,134.7,14.51,-92.71,41222,2015-10-08 15:05:49:728
8.6574,-1.5514,-0.6704,9.5405,-2.2688,0.045,-0.8831,0.7174,-0.7154,0.6946,0.3622,-0.081,-42.5,-9.0,22.0,130.91,13.59,-90.62,41322,2015-10-08 15:05:49:828
10.1897,-1.9154,-0.1724,9.5345,-2.235,0.5185,0.3488,0.358,-1.2464,0.7436,0.441,0.0618,-43.0,-7.25,20.75,129.73,13.38,-89.73,41421,2015-10-08 15:05:49:927
11.5305,-2.4134,0.5363,9.5671,-2.0819,0.5534,2.5954,-3.0513,1.9749,1.2613,-0.6264,-0.6946,-43.0,-6.25,21.25,122.12,12.26,-86.69,41521,2015-10-08 15:05:50:027
8.1594,-3.7733,2.624,9.4214,-2.6771,0.4904,-0.8938,-0.9846,2.2446,0.5795,-0.2344,0.8181,-42.25,-6.5,23.0,122.58,14.34,-87.33,41621,2015-10-08 15:05:50:127
7.7955,-2.3559,2.6432,9.3657,-2.6057,1.29,-2.2603,0.4169,1.2154,0.3771,0.6626,-0.4282,-40.25,-1.75,23.75,111.62,15.41,-82.16,41721,2015-10-08 15:05:50:227
7.3933,-2.6624,2.2601,9.3982,-2.3403,1.5384,-3.1567,-1.1419,0.2924,0.5965,0.1321,0.1832,-40.5,-0.5,23.0,106.31,13.81,-80.7,41821,2015-10-08 15:05:50:327
9.8067,-3.5626,1.2067,9.3773,-2.479,1.446,0.8116,0.6839,0.0869,0.3494,-0.1896,0.1406,-41.0,1.75,22.25,107.06,14.02,-80.53,41921,2015-10-08 15:05:50:427
8.6957,-2.9688,1.1492,9.3265,-2.8202,1.1108,-0.5662,0.025,-0.3459,-0.7436,-0.1896,0.4687,-40.5,1.25,22.75,107.96,15.92,-82.48,42021,2015-10-08 15:05:50:527
10.2663,-4.5586,-0.4597,9.2579,-3.1611,0.6854,1.0085,-1.3975,-1.1451,-1.3635,0.3558,0.2876,-39.5,1.5,23.25,111.36,18.8,-85.77,42121,2015-10-08 15:05:50:627
11.8561,-1.3982,1.2833,9.2507,-3.2232,0.4545,1.9925,1.5377,0.3117,-1.4083,-0.0043,-0.2493,-39.25,2.0,23.75,111.94,19.45,-86.54,42221,2015-10-08 15:05:50:727
4.4053,-4.616,-0.1149,9.4303,-2.6538,-0.4441,-4.6227,-1.5983,-0.8583,-0.1896,-1.1121,-0.7904,-39.25,-0.75,22.75,119.17,15.7,-92.7,42322,2015-10-08 15:05:50:828
11.9327,-3.2178,-4.6735,9.2969,-2.7862,-1.4051,2.8464,-1.6958,-2.3681,-0.1981,-0.1364,0.1577,-37.25,-2.75,26.5,124.26,16.51,-98.59,42422,2015-10-08 15:05:50:928
5.6886,-1.1684,-0.4597,9.2585,-2.6292,-1.8811,-3.5315,0.9245,1.7662,0.2642,-0.3047,0.0362,-30.75,-4.0,29.25,120.7,15.99,-100.67,42522,2015-10-08 15:05:51:028
7.8721,-3.3902,-1.4365,9.2153,-2.9841,-1.5312,-1.8794,0.1877,0.4777,1.1611,0.245,0.6775,-30.75,-3.5,31.0,118.26,17.72,-99.43,42622,2015-10-08 15:05:51:128
9.6534,-4.3862,-3.1603,8.9179,-3.9656,-0.9562,0.7355,-0.4205,-2.2041,0.8266,0.1577,-0.0597,-30.75,0.0,32.0,115.9,23.85,-96.12,42721,2015-10-08 15:05:51:227
10.2089,-3.4477,-2.0303,8.9322,-4.0054,-0.585,1.2766,0.5578,-1.4453,1.142,0.0426,-0.0959,-30.0,3.75,31.25,107.98,24.11,-93.75,42821,2015-10-08 15:05:51:327
14.2886,-8.2935,0.2682,8.8796,-4.0961,-0.7384,5.409,-4.1974,1.0065,1.0312,-0.686,0.0895,-29.25,6.25,30.75,105.11,24.69,-94.75,42921,2015-10-08 15:05:51:427
6.5888,-7.0677,-1.0726,8.7785,-4.3705,-0.0857,-2.1897,-2.6972,-0.9869,0.2429,0.6519,-0.1449,-28.75,9.75,31.25,98.3,26.49,-91.71,43021,2015-10-08 15:05:51:527
5.2864,-7.3741,3.1795,8.2866,-5.0799,1.3026,-3.0002,-2.2942,1.8769,0.4943,0.2812,1.3167,-31.75,13.0,29.0,93.38,28.46,-82.7,43121,2015-10-08 15:05:51:627
8.1403,-4.6352,2.3367,7.4299,-5.9111,2.4549,0.7104,1.2759,-0.1182,-0.7286,3.3535,0.4858,-33.75,16.5,25.25,96.89,33.54,-79.16,43221,2015-10-08 15:05:51:727
10.8409,-2.1452,4.8459,6.9061,-4.986,4.8596,3.9349,2.8408,-0.0138,-2.4778,4.8022,-4.2547,-35.75,19.0,16.5,86.68,36.76,-64.37,43321,2015-10-08 15:05:51:827
6.3207,-2.7007,8.9064,6.9282,-2.7051,6.3916,-0.6075,0.0044,2.5148,-2.0283,2.9678,-6.3341,-36.25,15.25,8.25,80.15,22.71,-50.71,43421,2015-10-08 15:05:51:927
2.739,-0.0766,8.0062,5.5822,-0.0799,8.0624,-2.8432,0.0033,-0.0562,-0.3601,1.9175,-4.7916,-27.75,-10.5,-16.0,126.34,0.47,-34.7,43522,2015-10-08 15:05:52:028
1.3408,1.7047,9.596,3.1261,1.7095,9.1365,-1.7853,-0.0048,0.4595,-0.3494,1.796,-3.558,-11.5,-23.25,-24.5,171.69,-10.04,-18.89,43621,2015-10-08 15:05:52:127
1.1875,3.237,8.2935,1.6277,2.4861,9.3456,-0.4402,0.7509,-1.0521,0.62,0.7606,-1.2251,-3.25,-25.75,-26.75,192.23,-11.36,-15.62,43721,2015-10-08 15:05:52:227
0.8811,3.4093,10.0173,1.153,2.7354,9.3466,-0.2719,0.6739,0.6708,0.4346,-0.3217,-0.2791,15.25,-31.25,-29.25,215.96,-15.54,-8.13,43821,2015-10-08 15:05:52:327
2.2218,2.1452,7.7764,1.5131,3.3878,9.0776,-0.3013,-0.3835,-1.08,0.669,-0.5454,0.0447,17.5,-30.25,-28.75,226.51,-17.83,-7.36,43921,2015-10-08 15:05:52:427
2.4134,2.9688,7.1826,1.8595,3.6394,8.9144,1.1885,-1.6184,0.5242,-0.4027,-0.3814,-0.5667,18.0,-30.75,-28.25,230.82,-20.21,-9.46,44021,2015-10-08 15:05:52:527
1.3791,3.6966,7.2401,2.0098,3.5486,8.9185,-0.3606,-0.2918,-1.4225,-0.3899,-0.3068,-0.6605,17.5,-32.5,-28.0,227.69,-20.86,-12.68,44121,2015-10-08 15:05:52:627
1.245,3.9456,7.9871,1.9283,3.3054,9.0292,-0.6833,0.6403,-1.0422,-0.4836,-0.4005,0.1704,18.0,-31.5,-28.25,228.36,-20.38,-11.97,44221,2015-10-08 15:05:52:727
1.8387,3.7733,6.8187,2.3611,3.1896,8.9678,-0.5223,0.7368,-1.6128,0.115,-0.5923,0.375,18.5,-29.5,-29.5,231.95,-18.87,-13.45,44321,2015-10-08 15:05:52:827
-0.1149,0.7661,6.11,3.7184,2.9998,8.5642,-3.91,-1.5824,-1.803,0.637,-2.5439,2.2477,17.75,-29.0,-30.0,232.78,-18.71,-18.37,44421,2015-10-08 15:05:52:927
6.6846,-2.3367,0.2682,8.0636,1.7104,5.3125,-1.379,-4.0471,-5.0444,-0.2834,-1.2229,3.7583,10.0,-28.75,-30.0,229.87,-16.57,-43.93,44521,2015-10-08 15:05:53:027
11.6837,-7.6231,8.2552,8.4549,-2.5268,4.278,3.2288,-5.0964,3.9772,1.4978,-3.2576,4.3079,-8.0,-28.25,-24.75,210.38,7.56,-60.33,44621,2015-10-08 15:05:53:127
15.7251,-4.6926,3.9265,8.0678,-4.7054,2.9901,7.6878,0.3566,1.011,1.3848,-1.9217,3.1042,-23.5,-20.5,-19.75,198.38,24.25,-68.12,44721,2015-10-08 15:05:53:227
10.1131,-1.743,5.1523,7.8051,-4.9249,3.3161,2.806,1.324,3.5792,1.3976,0.1598,0.1854,-33.0,-7.0,-11.5,175.75,30.5,-68.67,44821,2015-10-08 15:05:53:327
4.3862,-1.6855,3.4285,8.2287,-3.9584,3.5763,-3.8586,2.6014,-0.7229,0.5326,-1.3742,-0.1641,-36.5,-2.5,-9.5,168.36,28.71,-65.78,44921,2015-10-08 15:05:53:427
8.1594,-1.5897,-0.1149,8.5896,-4.0847,2.3883,-0.4326,2.5456,-2.4053,-1.4786,-0.2578,0.3111,-38.0,-4.5,-8.25,163.66,23.59,-69.84,45021,2015-10-08 15:05:53:527
9.0597,-3.2561,1.7621,8.7246,-4.2181,1.5028,-0.1451,0.914,2.9582,-1.1739,-0.0895,0.6179,-38.25,-4.0,-4.25,170.54,24.65,-79.11,45121,2015-10-08 15:05:53:627
8.1594,-5.5162,-0.6512,8.5915,-4.6471,0.8718,-0.1981,-0.2392,0.1043,-1.8024,0.2471,0.0682,-39.5,-3.5,-2.0,172.0,27.76,-82.78,45221,2015-10-08 15:05:53:727
9.098,-3.735,1.1875,8.5908,-4.6996,0.5313,0.5465,1.0118,4.0E-4,-1.1974,0.5561,0.0511,-40.0,-2.75,-1.5,175.7,28.64,-86.22,45321,2015-10-08 15:05:53:827
9.3661,-3.8882,1.1301,8.6201,-4.6685,0.2634,0.4874,-0.3078,0.8708,-0.8629,0.0447,-0.0852,-39.25,-1.75,-2.75,183.83,28.31,-87.59,45421,2015-10-08 15:05:53:927
7.5657,-5.2289,0.4214,8.65,-4.6198,0.0732,-1.0843,-0.6091,0.3481,-0.0852,-0.5113,0.1129,-39.0,-0.25,-3.75,189.95,28.06,-88.86,45521,2015-10-08 15:05:54:027
10.726,-7.1443,-2.3176,8.5154,-4.8561,-0.2776,4.6439,-1.6319,-1.9618,-1.0546,0.3366,-0.2216,-38.5,0.0,-3.0,192.73,29.68,-91.87,45621,2015-10-08 15:05:54:127
5.4588,-3.7924,-0.4022,8.7764,-4.2719,-0.9465,-1.4052,0.9739,1.0574,-0.9481,-0.4197,-0.1406,-39.25,1.5,-3.0,205.6,25.82,-96.15,45721,2015-10-08 15:05:54:227
6.3782,-5.1715,-1.6855,8.6566,-4.3987,-1.3731,-2.3002,-0.529,-0.4083,-0.3622,0.0916,0.1491,-39.25,0.75,-2.5,206.04,26.36,-98.68,45821,2015-10-08 15:05:54:327
7.4891,-3.735,-1.3982,8.652,-4.4131,-1.3555,-1.163,0.6782,-0.0427,-0.277,0.0298,-0.1001,-39.0,1.25,-2.75,209.0,26.74,-98.9,45921,2015-10-08 15:05:54:427
8.5617,-4.1946,-2.4325,8.8293,-4.0339,-1.3937,-0.2676,-0.1608,-1.0388,0.6264,0.0277,-0.3771,-40.0,1.25,-3.25,211.26,24.6,-99.13,46021,2015-10-08 15:05:54:527
10.6111,-6.0717,-1.1875,8.9601,-3.7282,-1.4099,0.8466,-2.3435,0.1841,0.3366,-0.1704,-0.6839,-40.5,1.25,-3.75,215.92,23.1,-99.24,46121,2015-10-08 15:05:54:627
7.2784,-3.486,0.5938,8.9416,-3.9261,-0.8964,-1.2035,0.172,1.0496,0.8522,0.0959,0.1875,-39.25,-0.25,-3.75,212.22,22.7,-97.96,46221,2015-10-08 15:05:54:727
9.0405,-2.6624,2.1069,8.9774,-3.9356,-0.2963,-0.8754,0.7178,2.25,0.9609,0.3814,-0.3643,-35.5,-3.5,-4.75,199.5,23.83,-94.68,46321,2015-10-08 15:05:54:827
8.7149,-3.5434,3.0454,9.0976,-3.6304,0.4725,0.2175,0.4795,2.0828,-0.049,0.5923,0.0639,-34.0,-4.25,-5.75,195.85,22.46,-89.57,46421,2015-10-08 15:05:54:927
8.7915,-4.865,1.0151,8.8825,-3.9605,1.2592,-0.1965,-0.3439,0.875,-0.7542,0.8629,-0.0639,-33.0,-3.5,-7.5,190.45,23.49,-83.09,46522,2015-10-08 15:05:55:028
9.1171,-4.367,2.5474,8.8003,-3.9672,1.7282,0.3294,-0.3951,0.7671,-1.4232,0.882,-0.3366,-31.25,-3.75,-9.75,192.91,23.86,-78.89,46622,2015-10-08 15:05:55:128
8.8873,-3.486,3.0646,8.7099,-4.0589,1.9577,0.1877,0.5812,1.0783,-1.4424,0.8948,-0.1704,-30.0,-2.5,-13.75,204.97,24.45,-77.33,46722,2015-10-08 15:05:55:228
8.9447,-3.1029,2.2984,8.5813,-4.2612,2.0915,0.341,1.2282,0.1683,-1.2847,0.7521,-0.1236,-28.0,0.0,-18.25,218.95,25.53,-76.47,46822,2015-10-08 15:05:55:328
9.979,-3.0263,1.3408,8.5678,-4.3112,2.0435,1.4878,1.3999,-0.1664,-1.3529,0.4794,-0.2109,-25.75,3.25,-21.5,233.22,26.16,-76.28,46921,2015-10-08 15:05:55:427
9.6151,-3.7924,2.9688,8.6406,-4.3547,1.596,0.9745,0.5623,1.3728,-1.4381,-0.0895,0.049,-25.0,6.5,-23.0,249.44,26.26,-78.51,47021,2015-10-08 15:05:55:527
7.0294,-5.1523,0.7087,8.5527,-4.6566,1.1561,-1.5234,-0.4957,-0.4475,-0.4922,-0.6349,0.441,-26.75,12.25,-22.0,258.97,28.35,-82.3,47122,2015-10-08 15:05:55:628
10.4579,-7.5657,-0.5938,8.4795,-4.9035,0.4732,1.9784,-2.6622,-1.067,-1.0994,-0.2812,-0.441,-27.0,15.75,-19.75,269.44,30.0,-86.81,47221,2015-10-08 15:05:55:727
6.4931,-4.0989,0.1149,8.6906,-4.4809,-0.7523,-2.1975,0.3821,0.8672,-0.6157,-0.9566,-0.0788,-26.25,17.0,-17.5,280.77,27.5,-92.79,47321,2015-10-08 15:05:55:827
8.4084,-5.1523,-1.1492,8.5837,-4.6568,-0.8975,-2.2976,-0.9757,-0.0127,0.3835,0.2152,0.0916,-28.25,17.25,-14.75,277.91,28.35,-95.97,47421,2015-10-08 15:05:55:927
7.9296,-3.3519,-0.9194,8.6173,-4.645,-0.5798,-0.4677,1.3357,-0.7884,0.2514,0.1832,-0.0895,-28.0,17.25,-14.25,277.85,28.27,-93.85,47521,2015-10-08 15:05:56:027
8.6574,-4.7118,-1.5706,8.6233,-4.6613,-0.2847,0.8769,-0.8166,-1.4008,1.0525,-0.0362,-0.0213,-27.75,16.75,-15.0,276.77,28.38,-91.89,47621,2015-10-08 15:05:56:127
9.8641,-6.6463,-0.3065,8.5936,-4.7244,-0.005,1.2757,-1.9124,-0.2986,0.5667,-0.3665,0.017,-27.75,15.5,-15.75,271.92,28.8,-90.03,47721,2015-10-08 15:05:56:227
7.3741,-4.0606,-1.743,8.4902,-4.868,0.6244,-1.5337,1.0889,-0.3533,-0.0682,0.2748,0.245,-26.75,14.75,-18.0,266.42,29.76,-85.79,47821,2015-10-08 15:05:56:327
6.0142,-3.8882,3.7158,8.4658,-4.865,0.9122,-1.7162,1.2057,2.582,-0.0149,0.3388,-0.1087,-26.75,14.75,-20.0,268.76,30.05,-85.57,47921,2015-10-08 15:05:56:427
8.1211,-4.8267,2.8539,8.4761,-4.7206,1.4286,-0.5465,-0.2785,1.6742,-0.1214,0.2961,0.0447,-24.0,14.0,-21.0,267.26,28.77,-80.43,48021,2015-10-08 15:05:56:527
8.0254,-5.3247,2.8156,8.2943,-4.9033,1.8256,-0.2114,-0.4597,1.0666,-0.7862,0.9438,0.0426,-24.25,14.75,-23.0,266.03,30.0,-77.59,48122,2015-10-08 15:05:56:628
8.1786,-5.3439,3.0837,8.2151,-4.9399,2.069,-0.0365,-0.404,1.0148,-1.5723,0.9161,-0.375,-22.0,15.75,-24.5,266.03,30.0,-77.59,48222,2015-10-08 15:05:56:728
8.3701,-4.4053,2.8156,8.1425,-5.0455,2.1007,0.2276,0.6401,0.7148,-1.5979,0.8288,-0.2216,-18.5,20.0,-25.5,279.97,30.47,-75.37,48321,2015-10-08 15:05:56:827
8.3893,-3.869,2.3559,8.1441,-5.0609,2.0572,0.2452,1.1918,0.2987,-1.5084,0.6434,-0.1662,-17.0,20.25,-26.25,284.24,31.07,-75.82,48421,2015-10-08 15:05:56:927
8.6766,-3.3327,1.5514,8.1553,-5.0974,1.9178,0.5213,1.7647,-0.3664,-1.012,0.424,-0.0362,-15.75,23.25,-24.0,287.5,31.11,-76.34,48521,2015-10-08 15:05:57:027
8.983,-2.7581,1.9728,8.1565,-5.1155,1.8635,0.635,2.1467,-0.178,-1.0248,0.4368,-0.0788,-14.75,24.75,-23.75,298.62,31.38,-76.89,48621,2015-10-08 15:05:57:127
9.8067,-3.7541,3.3902,8.3216,-4.9089,1.6803,0.8914,-0.0493,1.6633,-0.4091,-0.098,-0.2386,-13.75,27.75,-21.75,308.42,30.64,-78.29,48721,2015-10-08 15:05:57:227
6.9528,-6.7995,0.2298,8.3226,-5.0214,1.2999,-1.401,-1.8559,-0.2718,0.3238,-0.4581,0.5774,-14.0,31.0,-19.25,315.96,30.04,-78.58,48822,2015-10-08 15:05:57:328
11.0516,-6.2824,0.0,8.4011,-4.9628,0.9814,2.6689,-2.5234,-0.3542,-1.2655,0.3707,-0.9587,-15.75,32.75,-17.5,321.62,31.69,-82.28,48922,2015-10-08 15:05:57:428
5.9185,-3.984,1.2067,8.7623,-4.4024,0.1054,-2.7393,0.5096,1.2825,-1.0695,-0.5156,-0.2301,-14.25,33.0,-17.25,324.13,27.04,-87.74,49022,2015-10-08 15:05:57:528
9.0022,-3.237,0.0383,8.7686,-4.3878,-0.1714,-0.6251,0.4475,-0.1164,-0.5923,0.4325,-0.0554,-14.75,31.75,-13.5,328.72,26.8,-91.25,49122,2015-10-08 15:05:57:628
9.3853,-3.0071,-0.6704,8.8829,-4.1513,-0.1748,0.6563,1.2243,-0.599,0.0639,0.1129,-0.1662,-16.5,33.25,-10.5,335.72,25.64,-91.23,49222,2015-10-08 15:05:57:728
9.3087,-3.8307,-0.498,8.9519,-4.0042,-0.0196,0.3567,0.1734,-0.4783,0.7926,-0.0362,0.0256,-17.5,33.75,-9.0,339.22,24.26,-90.4,49322,2015-10-08 15:05:57:828
9.845,-5.2289,0.5746,8.869,-4.1845,-0.0163,0.9759,-1.0444,0.5909,0.4623,-0.3643,0.0234,-19.0,34.5,-9.0,339.42,24.92,-89.71,49422,2015-10-08 15:05:57:928
10.6303,-4.6543,-2.4325,8.8006,-4.286,0.5917,0.7487,0.01,-1.9478,0.8522,0.3686,0.2493,-18.75,33.25,-10.75,334.52,25.63,-87.52,49521,2015-10-08 15:05:58:027
6.4548,-3.7541,3.2753,8.7851,-4.3047,0.6801,-1.8386,0.7828,2.4173,-0.1726,-0.1513,-0.1683,-19.25,32.75,-13.0,335.58,25.92,-86.15,49621,2015-10-08 15:05:58:127
8.9064,-3.8882,2.6624,8.9096,-3.909,1.2282,-0.1181,-0.2857,1.2809,0.0874,0.3558,-0.5603,-18.25,31.75,-16.25,325.05,25.8,-85.23,49721,2015-10-08 15:05:58:227
8.1403,-4.5011,1.992,8.7714,-4.0352,1.7177,-1.3206,-0.5042,1.2894,0.3111,0.3366,0.3515,-18.25,30.25,-18.0,322.33,23.81,-80.31,49822,2015-10-08 15:05:58:328
9.2512,-3.0837,2.988,8.7451,-3.924,2.0727,0.4487,0.7828,0.9535,0.2173,0.3174,-0.2024,-17.75,29.75,-19.25,320.0,24.67,-78.04,49922,2015-10-08 15:05:58:428
8.3893,-4.7884,3.0837,8.6435,-3.8682,2.549,-0.3116,-0.8819,0.5538,0.8053,0.115,0.4176,-17.25,30.0,-21.0,320.44,23.14,-74.35,50022,2015-10-08 15:05:58:528
8.3701,-4.4436,3.1412,8.481,-3.987,2.889,-0.1109,-0.4567,0.2522,-0.7862,0.5177,-0.1854,-16.75,28.75,-22.0,317.95,23.78,-71.7,50121,2015-10-08 15:05:58:627
8.2935,-3.735,2.6432,8.4334,-4.076,2.9042,-0.2165,0.2069,-0.1078,-1.3231,0.5412,-0.2961,-15.5,27.75,-24.5,312.51,24.56,-71.0,50221,2015-10-08 15:05:58:727
8.8298,-3.3902,2.8156,8.29,-4.3055,2.9846,0.6548,1.1561,-0.1215,-0.8266,0.4794,0.032,-13.5,27.25,-24.0,310.36,25.71,-70.5,50321,2015-10-08 15:05:58:827
9.4044,-2.8922,2.5474,8.2343,-4.5141,2.8267,0.9941,1.4982,-0.2524,-1.3103,0.2514,-0.1087,-13.25,30.25,-23.25,315.6,27.04,-70.28,50422,2015-10-08 15:05:58:928
8.4659,-3.9648,3.0646,8.2227,-4.8023,2.3442,0.2432,0.8375,0.7204,-0.6775,-0.5156,0.6818,-11.75,32.75,-21.25,321.52,28.03,-73.01,50522,2015-10-08 15:05:59:028
7.9296,-5.6503,1.2641,7.9641,-5.3313,2.0785,-0.2736,-0.052,-1.0744,0.2024,0.0383,0.4261,-12.75,35.75,-18.25,325.06,29.32,-74.09,50632,2015-10-08 15:05:59:138
8.102,-5.4205,2.3942,7.9342,-5.4426,1.8966,0.1678,0.0222,0.4976,-0.375,-0.6179,0.2344,-11.75,38.75,-16.5,331.88,33.71,-76.56,50721,2015-10-08 15:05:59:227
8.983,-6.0908,-0.1724,8.1693,-5.3942,0.5783,1.0536,-0.7907,-0.6744,-1.1356,-0.6562,-0.6179,-10.25,40.75,-15.5,331.76,34.46,-78.42,50821,2015-10-08 15:05:59:327
7.1251,-4.4436,0.0,8.4416,-4.9868,-0.2059,-1.0732,0.5806,0.1277,-0.6157,-0.3622,-0.6562,-9.25,42.25,-12.5,335.7,32.49,-88.17,50921,2015-10-08 15:05:59:427
8.351,-5.0566,-0.3448,8.6038,-4.677,-0.5204,-0.2145,-0.5136,-0.0925,-0.0107,-0.1577,-0.3217,-11.5,42.75,-7.25,341.96,29.83,-92.32,51021,2015-10-08 15:05:59:527
7.6423,-4.8842,-0.8045,8.6427,-4.6095,-0.4762,-0.7514,0.2425,-0.5198,0.1236,0.2344,0.0234,-15.5,40.0,-4.5,350.17,27.99,-93.56,51121,2015-10-08 15:05:59:627
8.3127,-3.62,-0.996,8.6759,-4.5676,-0.1922,-0.077,1.2531,-0.8891,0.3899,0.1939,0.0852,-16.0,38.0,-3.75,350.23,27.86,-91.84,51221,2015-10-08 15:05:59:727
9.3661,-3.6775,-1.2641,8.6924,-4.5396,-0.0626,0.5552,0.5681,-0.8299,0.5092,-0.0724,0.0128,-17.25,36.75,-4.0,350.61,27.57,-90.41,51321,2015-10-08 15:05:59:827
10.8984,-6.2632,-0.6704,8.7509,-4.4262,-0.0048,2.1469,-1.8385,-0.6149,0.3537,0.4602,-0.13,-18.25,37.5,-5.5,350.55,27.48,-90.26,51421,2015-10-08 15:05:59:927
6.9528,-4.8076,2.1835,8.6904,-4.5335,0.3085,-1.7536,-0.3026,1.9094,0.2194,-0.0043,0.3217,-18.75,38.5,-6.25,347.9,27.16,-88.7,51521,2015-10-08 15:06:00:027
8.0062,-5.1523,1.7621,8.4904,-4.8678,0.6232,-0.4723,-0.2825,1.0069,0.4559,0.6328,0.0511,-19.75,38.75,-8.0,344.61,29.76,-85.8,51621,2015-10-08 15:06:00:127
8.0062,-5.6312,1.6089,8.3599,-5.0177,1.0513,-0.3537,-0.6135,0.5576,-0.571,0.2216,0.1726,-17.5,37.75,-11.5,339.64,30.12,-82.86,51721,2015-10-08 15:06:00:227
8.3893,-5.363,1.245,8.3046,-5.1342,0.9188,0.0847,-0.2288,0.3262,-1.8131,0.6605,-0.0916,-16.75,38.25,-11.0,338.4,31.57,-83.69,51821,2015-10-08 15:06:00:327
8.2744,-4.7692,0.8045,8.2903,-5.2069,0.5735,0.0032,0.3228,0.1735,-1.5766,0.7095,-0.1129,-16.0,38.5,-6.75,346.65,31.99,-85.69,51921,2015-10-08 15:06:00:427
8.734,-5.0566,0.6512,8.216,-5.3017,0.7478,0.5947,0.2835,-0.2307,-0.7499,0.5284,0.2258,-16.75,40.5,-1.5,0.81,32.41,-85.41,52021,2015-10-08 15:06:00:527
9.0022,-3.4093,0.996,8.1493,-5.3646,0.9899,0.8529,1.9552,0.0061,-0.4559,0.4495,0.1236,-16.75,41.5,0.0,4.02,33.03,-84.03,52121,2015-10-08 15:06:00:627
9.5193,-4.5777,1.3599,8.1678,-5.3338,1.0041,1.0643,0.9668,0.9687,-0.2194,0.1854,0.0959,-15.75,41.25,0.25,6.51,33.17,-83.04,52221,2015-10-08 15:06:00:727
7.4508,-5.8035,1.0343,8.0423,-5.5519,0.8178,-0.8788,-0.2708,-0.0899,0.6669,-0.7201,0.5539,-15.75,41.25,0.0,3.89,33.72,-83.83,52321,2015-10-08 15:06:00:827
7.0677,-6.8187,-0.6129,7.8201,-5.8496,0.8936,-0.3502,-0.7584,-1.3724,0.9119,-0.5092,0.017,-13.0,43.0,-1.75,3.48,35.58,-84.07,52421,2015-10-08 15:06:00:927
9.5577,-6.4739,0.2107,8.0443,-5.5803,0.5651,0.8047,-0.6638,-0.6035,-0.6541,-0.5177,-0.5965,-11.5,43.5,-3.5,355.74,34.68,-85.98,52521,2015-10-08 15:06:01:027
6.2249,-5.5737,0.5938,8.2648,-5.2777,-0.0961,-1.9207,-0.1909,0.6541,-0.1726,-0.3941,-0.3643,-12.25,41.5,-3.25,352.79,33.59,-88.49,52623,2015-10-08 15:06:01:129
8.0445,-5.4971,0.0766,8.3645,-5.1149,-0.2099,-0.4592,-0.2691,0.328,0.0298,-0.0895,-0.2834,-14.5,39.75,-1.25,357.12,31.44,-91.44,52721,2015-10-08 15:06:01:227
8.4467,-4.1563,-0.9194,8.4356,-4.9943,-0.259,-0.0332,0.8142,-0.6387,0.2109,-0.1513,-0.1917,-15.75,36.5,-0.5,358.81,30.62,-91.76,52821,2015-10-08 15:06:01:327
8.7532,-3.62,-0.5938,8.6061,-4.7016,-0.0057,0.1926,1.1485,-0.4606,0.931,-0.1044,-0.4559,-17.25,36.25,-2.0,356.76,29.85,-91.31,52921,2015-10-08 15:06:01:427
8.2935,-3.7158,-2.2793,8.6765,-4.5689,0.1176,-0.3447,1.0063,-2.416,0.4772,-0.2855,-0.0874,-17.0,33.5,-5.0,347.84,27.77,-89.22,53022,2015-10-08 15:06:01:528
12.0668,-6.2632,-3.7541,8.6779,-4.5211,0.651,3.3889,-1.7421,-4.4051,1.9771,0.0959,0.2258,-18.5,35.0,-6.75,344.54,26.81,-87.99,53122,2015-10-08 15:06:01:628
4.4053,-4.2713,2.4134,8.5351,-4.7505,0.8692,-3.8868,0.1108,1.7942,0.2919,-0.3196,0.4261,-19.5,32.5,-12.25,332.36,28.97,-84.18,53222,2015-10-08 15:06:01:728
8.2935,-5.3247,1.8962,8.5079,-4.6361,1.514,-0.1998,-0.6892,0.3007,0.8906,0.4432,0.1001,-19.75,31.0,-14.5,328.61,28.21,-79.91,53322,2015-10-08 15:06:01:828
7.3933,-4.7884,2.3559,8.2776,-4.8044,2.1376,-0.8416,0.0396,0.1094,0.2514,0.3878,0.0937,-18.5,31.5,-18.5,325.51,28.81,-77.07,53421,2015-10-08 15:06:01:927
8.4659,-5.1523,2.8156,8.1129,-4.7601,2.7734,0.3229,-0.3917,0.1324,-0.0874,0.6583,0.0554,-17.25,30.25,-22.25,316.51,29.23,-73.08,53521,2015-10-08 15:06:02:027
8.3701,-4.5011,3.0071,7.9948,-4.8415,2.9686,0.631,0.1342,-0.2775,-0.5177,0.3345,-0.0107,-17.0,30.25,-23.75,312.5,29.13,-70.51,53621,2015-10-08 15:06:02:127
8.0445,-4.7309,2.739,7.91,-4.9932,2.9446,0.1346,0.2623,-0.2056,-0.4943,0.3451,0.1427,-16.25,30.5,-24.25,311.16,30.61,-69.58,53721,2015-10-08 15:06:02:227
9.6151,-4.7118,1.743,7.8423,-5.2169,2.7301,2.2932,1.0934,-0.2547,-0.9992,0.4794,-0.3281,-16.75,32.75,-23.25,313.79,32.34,-69.94,53821,2015-10-08 15:06:02:327
8.4084,-6.7038,2.7007,7.9116,-5.366,2.187,0.1138,-1.3952,-0.444,-0.2834,-0.5305,0.1427,-16.75,35.25,-21.0,319.15,32.54,-72.94,53921,2015-10-08 15:06:02:427
6.6846,-6.608,0.8236,7.7586,-5.8001,1.5275,-0.6526,-1.0952,-0.6082,-0.0597,-0.3643,0.2216,-17.25,37.25,-17.5,321.87,34.45,-76.25,54021,2015-10-08 15:06:02:527
8.0828,-4.616,1.9154,8.2682,-5.1679,1.0486,0.1594,0.322,0.6369,-1.1952,-0.2919,-1.1867,-15.0,36.0,-15.0,329.16,31.8,-82.77,54121,2015-10-08 15:06:02:627
6.9145,-5.1715,-0.2107,8.6402,-4.6339,0.2128,-1.7257,-0.5376,-0.4235,-0.4197,-0.3707,-0.392,-17.0,34.5,-9.75,333.16,29.84,-85.48,54221,2015-10-08 15:06:02:727
8.734,-4.6543,0.1149,8.7162,-4.4915,0.1559,0.0178,-0.1628,-0.041,0.5198,-0.0703,-0.0234,-20.25,33.75,-6.25,341.55,27.84,-89.29,54321,2015-10-08 15:06:02:827
8.9639,-3.4093,-1.1301,8.8042,-4.3121,0.2503,0.1597,0.9028,-1.3804,0.9822,-0.0767,-0.1917,-20.75,32.25,-5.5,347.86,27.02,-88.71,54421,2015-10-08 15:06:02:927
8.4851,-3.5051,-0.6512,8.8254,-4.2438,0.5216,-0.0905,0.6417,-1.217,1.3358,-0.3771,0.1981,-21.25,32.0,-7.5,344.9,25.5,-87.51,54521,2015-10-08 15:06:03:027
12.3349,-9.6917,3.0646,8.8094,-4.2553,0.6768,3.5822,-5.3668,2.1401,2.3734,-0.0149,0.2961,-21.0,30.0,-10.75,331.97,25.72,-85.61,54621,2015-10-08 15:06:03:127
7.2401,-4.0223,1.8387,8.5773,-4.5303,1.4409,-1.3786,0.4487,0.4606,0.1917,-0.2642,0.2152,-20.5,26.5,-15.5,320.01,27.51,-80.46,54721,2015-10-08 15:06:03:227
8.3318,-4.7309,3.3136,8.485,-4.5794,1.7901,0.115,-0.2856,1.4086,0.7734,0.1193,-0.0746,-19.5,25.75,-18.75,312.98,28.26,-79.98,54821,2015-10-08 15:06:03:327
7.7764,-5.0566,3.1029,8.3144,-4.6826,2.2616,-0.7487,-0.2973,0.7455,-0.0107,0.4304,0.2429,-20.5,25.25,-19.25,308.4,28.52,-74.78,54921,2015-10-08 15:06:03:427
8.9256,-4.4819,3.1029,8.2223,-4.7212,2.5048,0.9331,-0.1438,-0.0148,-0.8288,0.7095,-0.4218,-18.5,24.25,-20.75,303.43,28.78,-73.06,55021,2015-10-08 15:06:03:527
8.2552,-4.5203,2.7773,8.1849,-4.683,2.6922,0.1661,0.1244,-0.2406,-0.6328,0.5113,-0.1065,-17.75,23.75,-20.75,304.24,28.51,-72.09,55121,2015-10-08 15:06:03:627
8.5425,-4.118,2.4708,8.0787,-4.8216,2.7673,0.5367,0.4009,-0.3608,-0.865,0.3856,0.0234,-17.25,26.0,-20.5,311.5,28.87,-71.12,55221,2015-10-08 15:06:03:727
8.9256,-3.9456,2.2793,8.0524,-4.9347,2.6416,0.8732,0.9891,-0.3623,-0.8075,0.3515,-0.0618,-16.75,27.5,-20.25,313.34,30.21,-71.84,55321,2015-10-08 15:06:03:827
9.2129,-3.735,2.2218,7.9586,-5.1676,2.4755,1.2543,1.4326,-0.2537,-0.5902,0.2599,0.2088,-16.25,28.25,-20.0,312.96,30.71,-72.18,55421,2015-10-08 15:06:03:927
9.2512,-5.3822,3.8307,7.9522,-5.2474,2.3233,1.299,-0.1347,1.5074,-0.1278,-0.2919,0.4304,-15.0,30.25,-17.25,317.22,31.8,-72.72,55521,2015-10-08 15:06:04:027
5.8035,-5.6886,0.5938,7.6406,-5.8118,2.0036,-1.6776,-0.3531,-1.5618,0.5071,-0.8032,0.5816,-13.75,31.0,-16.25,321.54,32.35,-73.71,55622,2015-10-08 15:06:04:128
8.0637,-6.2058,1.8004,7.7312,-5.8037,1.6483,0.3456,-0.1518,0.0364,0.522,-0.7563,-0.0618,-12.0,33.25,-15.25,325.81,36.48,-77.15,55721,2015-10-08 15:06:04:227
7.5848,-6.11,0.4597,7.9888,-5.6147,0.908,-0.5606,-0.4635,-0.3329,0.2471,-1.3401,-0.5859,-12.75,33.5,-14.25,328.03,36.29,-77.96,55821,2015-10-08 15:06:04:327
7.7189,-5.0374,0.8428,8.4933,-4.8955,0.2615,-0.8597,-0.1036,0.8114,1.3358,-1.0525,-0.6157,-15.25,31.25,-12.25,327.88,32.27,-87.11,55921,2015-10-08 15:06:04:427
8.9256,-5.2672,1.0151,8.7782,-4.3431,0.5009,0.18,-0.8535,0.5631,2.8208,-0.9225,-0.7095,-19.75,28.75,-12.25,325.42,27.62,-87.65,56021,2015-10-08 15:06:04:527
7.3741,-4.7501,3.2561,8.8177,-4.0961,1.2806,-1.0988,-1.037,3.3545,3.9884,-0.9417,0.5816,-22.0,23.5,-15.0,313.94,24.56,-83.74,56122,2015-10-08 15:06:04:628
6.7038,-6.5888,5.3822,8.5515,-4.2157,2.2956,-2.0201,-1.9135,2.4737,3.7007,-0.7073,1.0653,-24.75,14.75,-19.0,276.98,24.88,-77.39,56222,2015-10-08 15:06:04:728
9.5002,-6.4739,1.4365,8.1646,-4.433,3.1398,1.3164,-2.3283,-0.7073,2.252,-0.7776,0.5752,-26.5,8.0,-22.5,237.9,26.93,-69.89,56321,2015-10-08 15:06:04:827
8.2552,-3.1412,4.1946,8.1884,-4.1604,3.4368,0.0668,1.0192,0.7578,1.4978,-0.5284,0.5071,-26.25,2.75,-24.5,226.52,25.96,-67.88,56421,2015-10-08 15:06:04:927
7.6231,-5.363,2.9113,8.0424,-4.4591,3.4068,-0.594,-0.8862,-0.4343,1.2804,-0.6285,0.4559,-28.75,-0.75,-24.0,212.48,26.58,-67.12,56521,2015-10-08 15:06:05:027
9.0022,-4.2713,3.7541,8.1558,-4.3874,3.2254,0.8464,0.1162,0.5287,0.4027,-0.8437,0.2621,-30.25,-1.25,-23.0,208.39,27.05,-67.04,56621,2015-10-08 15:06:05:127
7.7955,-3.9456,3.3902,8.2451,-4.5084,2.8041,-0.3994,0.3517,0.3909,0.392,-0.6818,0.4517,-31.5,-2.75,-21.25,207.78,26.58,-68.42,56722,2015-10-08 15:06:05:228
8.6957,-3.9456,3.4668,8.1701,-4.742,2.6333,0.5868,0.884,0.5457,0.5241,-0.5028,0.6242,-33.25,-3.0,-19.0,203.82,27.37,-71.22,56822,2015-10-08 15:06:05:328
9.8641,-5.7269,2.9497,8.115,-4.9514,2.4087,1.7548,-0.7274,0.6229,0.3601,-1.0184,0.6242,-35.75,-2.75,-17.0,197.6,29.37,-72.17,56922,2015-10-08 15:06:05:428
6.4548,-8.3318,-1.3216,8.0002,-5.3681,1.8305,-1.4848,-2.8315,-3.019,1.0823,-1.2762,0.9204,-36.75,-1.25,-15.5,195.87,33.19,-77.11,57022,2015-10-08 15:06:05:528
5.8802,-6.5314,2.0877,8.1682,-5.3354,0.9922,-2.2307,-1.1347,0.9654,0.1023,-0.8501,-0.5518,-38.5,-1.25,-13.0,193.95,34.45,-78.35,57121,2015-10-08 15:06:05:627
6.8953,-7.7381,1.2067,8.2866,-5.2149,0.5548,-1.3913,-2.5231,0.6519,0.3515,-0.7265,-0.1896,-38.25,1.25,-8.75,196.94,32.15,-85.51,57221,2015-10-08 15:06:05:727
6.8953,-7.4124,0.3065,8.2523,-5.2794,0.4451,-1.357,-2.133,-0.1386,0.4368,-0.1364,-0.2429,-39.5,0.75,-4.0,185.45,32.53,-86.96,57321,2015-10-08 15:06:05:827
7.4124,-5.1906,0.5938,8.4899,-4.8821,0.5074,-1.1732,-0.1744,0.2013,0.081,-0.0362,-0.5369,-39.5,-0.25,-1.75,179.47,32.17,-86.85,57421,2015-10-08 15:06:05:927
7.9296,-5.0566,0.2873,8.6161,-4.6536,0.5269,-0.585,-0.3931,-0.3131,0.0788,0.0874,-0.3388,-38.75,-2.75,-0.25,173.8,28.8,-86.59,57521,2015-10-08 15:06:06:027
9.4236,-5.8227,0.8045,8.6944,-4.5088,0.4986,0.7153,-1.3421,0.2942,-0.245,0.245,-0.4304,-39.0,-5.0,0.0,173.41,27.99,-86.3,57621,2015-10-08 15:06:06:127
7.5848,-6.2632,0.8428,8.6877,-4.4752,0.8167,-1.0787,-1.7453,0.0044,0.7798,0.0362,0.2514,-39.25,-7.5,0.0,172.73,26.77,-85.54,57722,2015-10-08 15:06:06:228
7.2018,-6.5314,4.5394,8.4171,-4.8683,1.2737,-1.2154,-1.6631,3.2657,0.2173,0.4858,0.2045,-39.25,-7.5,-0.5,169.79,28.94,-83.4,57821,2015-10-08 15:06:06:327
6.0908,-7.5082,1.6472,8.2166,-5.1226,1.5543,-2.1258,-2.3856,0.0929,-1.698,0.588,-0.2216,-38.0,-6.0,0.0,163.32,30.78,-78.98,57921,2015-10-08 15:06:06:427
7.4508,-5.8035,3.5051,8.3103,-5.0539,1.2518,-1.0064,-0.6767,2.4952,-2.4629,1.2719,-0.7883,-38.0,-5.5,-0.5,165.35,31.96,-80.13,58021,2015-10-08 15:06:06:527
9.1171,-5.7269,1.0151,8.2404,-5.2249,0.9826,0.8767,-0.502,0.0325,-2.2988,1.1036,-0.2855,-37.25,-5.75,-3.75,178.38,32.23,-82.74,58121,2015-10-08 15:06:06:627
10.0748,-4.3096,1.2641,8.1624,-5.3905,0.6984,1.9124,1.0809,0.5657,-1.4999,0.6456,0.1406,-38.25,-6.0,-9.5,191.6,32.86,-84.54,58221,2015-10-08 15:06:06:727
9.5002,-3.1029,-0.2298,8.2412,-5.299,0.4179,1.2785,2.0169,-0.62,-1.3657,0.5369,-0.1854,-37.5,-3.5,-13.0,205.93,32.71,-87.1,58321,2015-10-08 15:06:06:827
9.5385,-3.9265,-0.5938,8.2893,-5.2393,0.0817,1.2492,1.3129,-0.6754,-0.1214,0.0575,0.4005,-36.0,-1.75,-14.75,210.9,32.04,-88.52,58421,2015-10-08 15:06:06:927
7.2401,-4.5394,-0.7087,8.1135,-5.508,0.0572,-0.8734,0.9686,-0.7659,0.4985,-0.1491,0.473,-36.25,-0.25,-15.75,217.82,34.17,-89.6,58521,2015-10-08 15:06:07:027
8.351,-5.5545,-0.4214,7.9263,-5.7743,0.0364,-0.2552,0.2918,-0.0249,0.0426,-0.1662,0.5731,-36.25,1.0,-14.75,215.98,36.07,-89.74,58621,2015-10-08 15:06:07:127
6.9528,-5.7461,-0.8619,7.6742,-6.1051,0.0701,-0.4935,0.1696,-0.766,0.3366,-0.0597,0.2557,-34.0,1.5,-13.75,215.61,37.09,-89.96,58721,2015-10-08 15:06:07:227
9.4619,-7.9104,0.6321,7.6252,-6.1563,0.3567,2.4381,-2.1558,0.2454,0.7499,0.4346,-0.2834,-34.75,2.75,-14.25,213.91,38.84,-88.97,58821,2015-10-08 15:06:07:327
6.0525,-5.4779,1.3408,7.7184,-5.9765,0.9372,-1.3594,0.3454,0.5376,-0.147,-0.0937,-0.1662,-34.5,2.5,-15.75,210.91,37.75,-82.9,58921,2015-10-08 15:06:07:427
8.1977,-4.6735,1.8004,7.892,-5.6884,1.2364,0.3058,1.015,0.5641,0.228,0.3388,-0.2919,-34.5,2.5,-16.5,210.63,36.34,-82.07,59021,2015-10-08 15:06:07:527
8.351,-5.2672,2.0111,8.0226,-5.3988,1.6311,0.3284,0.1316,0.38,0.3963,0.1087,-0.2621,-34.75,0.25,-18.0,207.71,33.88,-79.1,59122,2015-10-08 15:06:07:628
8.1211,-4.8076,2.4325,8.126,-5.1441,1.9175,-0.0049,0.3365,0.515,-0.0788,0.2834,-0.3622,-34.5,-2.75,-19.5,207.76,32.85,-78.05,59221,2015-10-08 15:06:07:727
8.3701,-4.9608,2.5474,8.2648,-4.8131,2.1674,0.0862,-0.071,0.3609,-0.1577,0.0916,-0.1747,-33.5,-3.5,-20.75,206.21,30.75,-76.05,59322,2015-10-08 15:06:07:828
8.3318,-4.3287,2.8922,8.3075,-4.6863,2.2791,0.0243,0.3576,0.6131,-0.2003,0.115,-0.2684,-33.0,-3.5,-21.0,209.51,28.94,-74.94,59422,2015-10-08 15:06:07:928
8.5808,-4.1946,2.5666,8.3596,-4.5498,2.3634,0.232,0.4147,0.1615,-0.2067,0.1257,-0.245,-31.75,-5.25,-22.0,209.14,28.25,-74.53,59521,2015-10-08 15:06:08:027
8.6,-4.0031,2.8156,8.4339,-4.38,2.4199,0.1661,0.3769,0.3957,-0.0362,-0.0511,-0.017,-31.75,-6.75,-22.75,210.19,26.53,-73.99,59621,2015-10-08 15:06:08:127
8.4276,-4.4628,2.6049,8.4658,-4.3124,2.4297,-0.0191,-0.1313,0.1368,0.0213,0.0639,-0.0511,-32.0,-5.25,-23.0,212.55,26.09,-73.99,59722,2015-10-08 15:06:08:228
8.4276,-4.3287,2.4517,8.4211,-4.388,2.4496,0.0065,0.0593,0.002,-0.0383,0.0341,0.0149,-31.75,-5.0,-23.0,211.33,26.13,-73.91,59822,2015-10-08 15:06:08:328
8.4084,-4.5203,2.4134,8.3989,-4.4109,2.4847,0.0096,-0.1094,-0.0713,0.0597,0.0405,0.115,-32.0,-5.75,-22.75,210.55,26.65,-73.58,59922,2015-10-08 15:06:08:428
8.351,-4.4628,2.7198,8.3437,-4.4768,2.5518,-0.0104,-0.0586,-0.0404,0.1065,-0.0298,-0.0639,-31.25,-5.0,-23.25,211.55,27.16,-72.99,60021,2015-10-08 15:06:08:527
8.2935,-4.4628,2.7198,8.3202,-4.5073,2.5747,-0.0223,0.0279,0.1545,-0.1683,0.0639,-0.0085,-31.5,-4.5,-23.0,212.26,27.36,-72.81,60121,2015-10-08 15:06:08:627
8.1403,-5.1332,2.6049,8.2957,-4.5449,2.5878,-0.2123,-0.3159,-0.0348,-0.2131,0.0554,-0.0682,-31.25,-6.5,-23.75,211.48,27.61,-72.68,60221,2015-10-08 15:06:08:727
8.3701,-4.7309,3.6392,8.2434,-4.6173,2.6264,0.0885,-0.1902,0.9745,-0.1257,0.1193,0.0021,-29.25,-5.75,-24.75,214.47,28.09,-72.33,60321,2015-10-08 15:06:08:827
8.2169,-4.5969,2.739,8.1231,-4.7857,2.6986,0.0938,0.1889,0.0403,-0.4559,0.2131,0.1193,-28.75,-4.75,-24.25,213.22,28.32,-71.84,60421,2015-10-08 15:06:08:927
10.0173,-4.9608,-0.0383,8.236,-4.9016,2.077,1.7814,-0.0592,-2.1153,-1.2165,-0.228,-0.179,-28.75,-2.25,-25.0,222.31,29.99,-75.85,60521,2015-10-08 15:06:09:027
6.7421,-4.5011,2.2984,8.2189,-5.226,1.1437,-0.7505,0.7672,0.9555,-0.718,-0.6775,0.6669,-30.75,-2.75,-24.0,222.45,30.22,-78.07,60621,2015-10-08 15:06:09:127
8.5042,-5.2672,0.4597,8.184,-5.3773,0.5265,0.9331,0.3207,-0.2966,-0.6136,-0.147,-0.2599,-31.0,-0.25,-23.0,226.98,32.86,-83.6,60721,2015-10-08 15:06:09:227
6.9145,-4.0989,-0.1149,8.2629,-5.2807,0.0973,-0.8696,1.1819,-0.2697,0.3281,-0.0852,0.2706,-30.25,3.25,-20.75,234.06,32.81,-87.42,60821,2015-10-08 15:06:09:327
7.7764,-5.5162,-0.5938,8.173,-5.416,0.1975,-0.4158,0.3403,-0.7338,0.3963,0.1427,0.1726,-30.5,3.25,-19.75,234.27,33.17,-89.14,60921,2015-10-08 15:06:09:427
9.6151,-6.1675,-0.5171,8.1135,-5.494,0.3978,1.923,-0.5777,0.1194,0.669,0.49,-0.0937,-31.5,3.75,-18.25,229.46,34.0,-87.84,61021,2015-10-08 15:06:09:527
7.8147,-5.7461,0.996,7.9003,-5.6353,1.4138,-0.0856,-0.1108,-0.4178,0.343,0.3963,0.1491,-31.0,5.0,-19.5,230.23,34.07,-87.19,61121,2015-10-08 15:06:09:627
8.6766,-5.8227,2.0877,7.728,-5.672,2.0679,0.9486,-0.1507,0.0199,0.1257,0.4858,-0.3409,-27.75,4.25,-22.25,223.57,35.41,-76.33,61221,2015-10-08 15:06:09:727
7.4699,-5.3822,3.0263,7.7798,-5.5227,2.2684,-0.3099,0.1405,0.7579,-0.098,0.0447,-0.0107,-25.25,2.0,-25.0,227.04,34.42,-73.8,61322,2015-10-08 15:06:09:828
7.5848,-4.9608,3.0454,7.7688,-5.4967,2.3669,-0.1839,0.5359,0.6785,-0.1087,0.1321,-0.2109,-24.5,2.25,-26.25,229.79,34.27,-73.74,61421,2015-10-08 15:06:09:927
8.0062,-5.114,2.8156,7.8081,-5.4214,2.411,0.1982,0.3074,0.4046,0.2045,0.0085,-0.1129,-24.75,4.25,-27.0,230.87,33.93,-73.07,61521,2015-10-08 15:06:10:027
8.1403,-5.4013,2.5283,7.8052,-5.3477,2.579,0.3351,-0.0536,-0.0508,0.3707,-0.1129,-0.0064,-23.5,3.75,-26.75,235.71,33.38,-72.51,61621,2015-10-08 15:06:10:127
7.9104,-5.3247,2.873,7.8088,-5.2908,2.6834,0.1016,-0.0339,0.1896,0.3622,-0.0724,-0.1023,-23.5,2.0,-26.75,230.69,32.65,-71.04,61721,2015-10-08 15:06:10:227
7.7381,-5.3247,2.8539,7.8137,-5.2499,2.7486,-0.0756,-0.0748,0.1053,0.0895,-0.0447,0.0852,-22.25,1.75,-26.5,230.88,32.42,-70.71,61822,2015-10-08 15:06:10:328
7.9296,-5.3439,2.7581,7.8167,-5.2294,2.7789,0.1775,-0.0258,-0.0183,0.1364,0.0234,-0.0746,-23.5,1.5,-27.25,230.38,32.29,-70.49,61922,2015-10-08 15:06:10:428
7.8913,-5.2098,2.739,7.8304,-5.2183,2.7614,0.0206,0.0242,-0.0041,0.0213,-0.0639,-0.0362,-23.75,1.5,-27.75,230.27,32.18,-70.58,62021,2015-10-08 15:06:10:527
7.9871,-5.2289,2.8539,7.8392,-5.2285,2.7166,0.1361,-0.0119,0.1492,0.0192,-0.0575,-0.0959,-23.75,1.25,-27.5,227.81,32.24,-70.83,62121,2015-10-08 15:06:10:627
7.9296,-5.1332,2.9305,7.8851,-5.2024,2.6325,0.0368,0.0799,0.3426,-0.2216,-0.1768,-0.0511,-24.0,1.0,-26.75,228.49,32.14,-71.34,62221,2015-10-08 15:06:10:727
7.9871,-5.0374,2.873,7.964,-5.2138,2.3581,0.0241,0.158,0.471,-0.2258,-0.2493,0.0469,-24.25,1.25,-26.75,230.39,32.03,-72.92,62322,2015-10-08 15:06:10:828
8.0445,-5.114,2.6815,8.0133,-5.2334,2.1374,0.0387,0.1137,0.5024,-0.032,-0.3217,-0.0107,-24.75,2.0,-26.0,231.19,32.24,-74.64,62422,2015-10-08 15:06:10:928
7.9871,-5.0949,2.2984,8.0724,-5.2313,1.908,-0.0853,0.1365,0.3904,-0.049,-0.2855,-0.0064,-26.25,2.5,-24.5,231.33,32.24,-76.7,62522,2015-10-08 15:06:11:028
7.9487,-5.1715,1.8004,8.1182,-5.2858,1.5251,-0.1222,0.0842,0.399,0.0234,-0.3814,0.2578,-28.0,1.75,-23.0,227.82,32.32,-78.61,62622,2015-10-08 15:06:11:128
7.6998,-5.4396,1.5706,8.0974,-5.3793,1.2903,-0.3701,-0.0992,0.2478,0.0426,-0.294,0.1577,-29.0,1.5,-21.75,226.82,33.08,-80.57,62721,2015-10-08 15:06:11:227
7.9487,-5.7269,0.3065,8.0196,-5.5489,1.0326,0.0317,-0.1053,-0.9069,0.1023,-0.3473,0.1832,-30.75,0.25,-19.5,218.02,33.9,-82.06,62821,2015-10-08 15:06:11:327
8.7724,-5.8035,-0.7087,8.0564,-5.5573,0.617,0.7159,-0.2462,-1.3256,-0.0831,-0.5028,-0.2471,-31.0,0.75,-17.75,220.22,34.76,-84.6,62921,2015-10-08 15:06:11:427
8.4084,-5.6886,-0.6512,8.1812,-5.4044,0.1768,0.2272,-0.2843,-0.828,0.1278,-0.5348,-0.2131,-32.5,0.5,-15.25,220.12,33.44,-88.76,63021,2015-10-08 15:06:11:527
7.355,-5.5737,-0.1532,8.1878,-5.3972,-0.0278,-0.6987,-0.3872,-0.4893,0.3622,-0.3515,-0.0085,-34.25,-0.25,-13.25,215.06,33.39,-90.19,63121,2015-10-08 15:06:11:627
7.7381,-5.4971,-0.3831,8.1878,-5.3972,-0.0159,-0.5264,-0.1191,-0.4055,0.0469,-0.0277,-0.1193,-34.0,-0.75,-12.0,211.7,33.39,-90.11,63221,2015-10-08 15:06:11:727
8.2361,-5.9951,0.0575,8.1474,-5.4546,0.1929,0.0617,-0.5792,-0.0815,0.1534,0.2663,0.2471,-34.5,0.0,-12.5,211.58,33.42,-89.26,63321,2015-10-08 15:06:11:827
7.2401,-5.7078,0.6321,7.989,-5.6644,0.5115,-0.7489,-0.0434,0.1206,0.1108,0.2258,0.4325,-34.25,-0.5,-13.75,211.27,34.23,-87.94,63421,2015-10-08 15:06:11:927
8.5234,-5.4588,0.9002,7.8873,-5.8094,0.4593,0.636,0.3506,0.4409,-0.3324,0.1598,-0.1001,-33.25,-0.75,-14.5,210.04,35.88,-86.45,63521,2015-10-08 15:06:12:027
8.0637,-5.2289,0.0766,8.0265,-5.6281,0.2654,0.0372,0.3992,-0.1887,-0.4368,0.0192,-0.1854,-33.25,0.75,-15.25,213.42,36.1,-86.81,63621,2015-10-08 15:06:12:127
8.1786,-5.4971,0.2873,8.0109,-5.6513,0.2403,0.1677,0.1543,0.047,0.2365,-0.032,-0.0213,-34.25,3.0,-15.5,218.78,35.19,-88.28,63721,2015-10-08 15:06:12:227
8.1977,-5.5737,0.2682,7.9745,-5.6995,0.3066,0.2233,0.1258,-0.0384,0.0362,0.0511,-0.0341,-34.5,2.25,-15.5,216.56,35.53,-87.8,63821,2015-10-08 15:06:12:327
8.0445,-5.7078,0.2298,7.9623,-5.7179,0.2793,0.0822,0.0101,-0.0495,0.0533,0.0426,0.0852,-34.5,2.0,-15.5,216.74,35.49,-87.9,63921,2015-10-08 15:06:12:427
8.0062,-5.6695,0.4214,7.9299,-5.7627,0.2789,0.1036,0.0852,0.0249,0.0767,-0.098,0.0213,-34.5,1.75,-15.0,216.58,35.92,-88.02,64021,2015-10-08 15:06:12:527
8.0062,-5.6695,0.4214,7.9158,-5.7814,0.2945,0.0749,0.0979,0.073,-0.0213,-0.032,0.0682,-35.5,0.25,-14.75,213.2,36.2,-87.93,64121,2015-10-08 15:06:12:627
8.0062,-5.6886,0.4022,7.8873,-5.8204,0.2883,0.148,0.1837,0.0969,-0.0362,0.1065,0.1214,-34.0,1.75,-15.5,216.06,36.41,-87.91,64221,2015-10-08 15:06:12:727
7.9871,-5.7269,0.4788,7.8699,-5.8447,0.2731,0.1165,0.1165,0.1985,-0.0043,0.0128,-0.1577,-34.0,1.0,-14.75,215.05,36.51,-88.05,64321,2015-10-08 15:06:12:827
8.0254,-5.612,0.5938,7.8648,-5.8504,0.297,0.1639,0.2619,0.3135,0.0064,-0.0043,0.0767,-34.5,2.0,-15.5,216.06,36.53,-87.97,64421,2015-10-08 15:06:12:927
8.1977,-5.5545,0.3831,7.8659,-5.8501,0.2732,0.2769,0.2606,0.0322,0.0043,0.0511,-0.0149,-35.0,1.5,-15.5,215.14,36.62,-88.01,64521,2015-10-08 15:06:13:027
8.6,-5.1715,0.0383,7.8995,-5.808,0.187,0.7858,0.7305,-0.2915,0.0874,-0.0831,-0.1491,-35.0,1.75,-15.25,216.25,36.32,-88.64,64621,2015-10-08 15:06:13:127
8.7724,-4.8076,-0.1915,8.1864,-5.3993,0.0375,0.6322,0.5941,-0.2563,0.3345,-0.2919,-0.4261,-35.0,1.75,-15.25,219.11,34.23,-89.54,64721,2015-10-08 15:06:13:227
8.1977,-4.616,0.0575,8.4824,-4.9137,-0.273,-0.26,0.3413,0.3056,0.3515,-0.5582,-0.5603,-35.0,-2.25,-13.5,214.48,31.36,-90.98,64821,2015-10-08 15:06:13:327
8.1403,-4.4436,0.0575,8.6769,-4.5545,-0.372,-0.5969,0.1948,0.3967,0.6562,-0.4964,-0.3707,-35.75,-4.75,-11.75,214.56,29.15,-92.28,64921,2015-10-08 15:06:13:427
8.7149,-4.4053,0.1915,8.7635,-4.3993,-0.131,0.037,-0.0446,0.2875,1.0823,-0.2088,-0.2599,-36.75,-9.5,-11.0,209.6,27.28,-92.07,65021,2015-10-08 15:06:13:527
8.6,-4.2329,0.3831,8.799,-4.3247,0.2106,-0.1766,0.1133,0.1552,1.1974,-0.2088,-0.0298,-36.25,-10.75,-9.75,199.46,26.17,-88.63,65121,2015-10-08 15:06:13:627
7.8721,-4.1755,0.5555,8.7763,-4.3262,0.6556,-0.8972,0.1183,0.0567,0.7947,-0.0298,0.1385,-35.75,-11.0,-9.75,198.53,26.16,-87.91,65221,2015-10-08 15:06:13:727
8.8107,-3.9648,0.0766,8.6865,-4.4655,0.8798,0.1073,0.4738,-0.772,0.3899,0.0341,0.2578,-36.0,-12.5,-8.75,195.64,26.18,-85.73,65321,2015-10-08 15:06:13:827
11.7603,-5.8993,1.8196,8.685,-4.437,1.0269,3.0584,-1.5215,0.6876,0.4218,-0.0554,-0.0149,-36.0,-13.0,-8.25,187.51,26.9,-83.26,65421,2015-10-08 15:06:13:927
8.1594,-4.1946,2.3367,8.6863,-4.3445,1.3578,-0.5269,0.1498,0.9789,0.49,-0.0937,-0.0277,-36.0,-12.75,-8.5,185.01,26.65,-81.3,65521,2015-10-08 15:06:14:027
7.9487,-4.2329,1.8771,8.5636,-4.5792,1.3659,-0.6149,0.3463,0.5111,0.7691,-0.2088,0.3665,-36.0,-14.25,-8.5,184.75,26.64,-81.22,65622,2015-10-08 15:06:14:128
8.2935,-5.114,2.1644,8.4457,-4.7473,1.5181,-0.1521,-0.3667,0.6462,1.1782,-0.5092,0.4538,-36.5,-13.5,-5.75,179.98,28.11,-80.52,65721,2015-10-08 15:06:14:227
7.9487,-4.9225,2.375,8.3273,-4.8223,1.8899,-0.3786,-0.1002,0.4852,1.7747,-0.3856,0.4453,-36.0,-11.75,-3.25,170.96,29.38,-78.14,65821,2015-10-08 15:06:14:327
7.8913,-4.9033,2.7198,8.2027,-4.8573,2.3005,-0.3114,-0.046,0.4193,0.9523,-0.3153,0.1854,-37.25,-9.0,-0.5,159.38,29.67,-74.97,65921,2015-10-08 15:06:14:427
7.7572,-5.8802,2.4134,8.0962,-4.9006,2.57,-0.339,-0.9795,-0.1567,0.3963,-0.0597,0.1427,-37.75,-7.0,0.75,153.64,29.73,-73.28,66021,2015-10-08 15:06:14:527
7.7955,-4.9799,2.739,8.0151,-5.0377,2.5592,-0.2196,0.0578,0.1797,-0.4751,0.2024,0.0149,-37.75,-3.0,0.75,148.88,30.43,-72.25,66121,2015-10-08 15:06:14:627
8.1786,-4.5969,2.7007,7.9229,-5.223,2.4734,0.2557,0.6262,0.2273,-0.882,0.3281,0.049,-37.25,-1.5,0.0,150.41,31.87,-72.59,66221,2015-10-08 15:06:14:727
9.2895,-4.5777,3.4093,7.7355,-5.5411,2.3724,1.554,0.9634,1.037,-0.8394,0.4155,0.3686,-36.75,-1.0,-1.5,150.74,32.18,-72.66,66322,2015-10-08 15:06:14:828
8.2361,-5.5929,2.2601,7.6545,-5.8111,1.9519,0.5815,0.2182,0.3082,-1.2634,0.0874,0.0341,-37.5,-1.5,-3.0,162.28,35.71,-74.41,66422,2015-10-08 15:06:14:928
6.5505,-6.1866,1.1875,7.6243,-6.0405,1.2464,-1.0737,-0.1461,-0.0589,-0.8927,0.0383,-0.0256,-37.25,-0.75,-2.75,169.43,37.25,-78.69,66521,2015-10-08 15:06:15:027
8.102,-6.9911,-0.6321,7.7037,-6.0318,0.6642,0.3983,-0.9593,-1.2962,-1.1547,-0.0362,-0.4048,-39.25,0.0,-2.25,174.0,38.13,-83.35,66623,2015-10-08 15:06:15:129
7.5465,-5.7652,-0.9385,8.0294,-5.6183,-0.3671,-0.4828,-0.147,-0.5714,-1.3955,-0.0192,-0.767,-38.5,1.25,-1.5,176.54,37.96,-85.07,66721,2015-10-08 15:06:15:227
7.604,-4.9225,-1.1875,8.2105,-5.2904,-0.8771,-0.6065,0.368,-0.3104,-0.4794,-0.0852,-0.1768,-39.0,-1.0,-0.5,189.38,33.06,-95.35,66821,2015-10-08 15:06:15:327
8.7149,-4.2329,-1.4365,8.3671,-5.0604,-0.745,0.3478,0.8275,-0.6915,0.4559,0.228,-0.2322,-38.5,-2.75,0.0,189.94,31.53,-95.91,66921,2015-10-08 15:06:15:427
8.1211,-3.3327,-0.7087,8.5207,-4.8319,-0.4698,-0.3996,1.4992,-0.2389,0.8799,-0.0937,-0.017,-37.75,-5.75,-1.0,188.38,30.02,-93.86,67021,2015-10-08 15:06:15:527
8.2935,-4.5586,-0.5363,8.4812,-4.9227,-0.0838,0.0708,0.2085,-0.5774,1.6149,-0.4836,0.081,-37.0,-7.75,-1.0,184.06,29.8,-91.24,67121,2015-10-08 15:06:15:627
9.8067,-7.5274,0.0575,8.5168,-4.8394,0.4642,1.2899,-2.688,-0.4068,1.9111,-0.1449,0.2748,-38.0,-6.5,0.25,178.39,29.81,-88.98,67221,2015-10-08 15:06:15:727
6.7804,-4.2904,1.9728,8.3348,-5.1293,0.626,-1.3821,0.6473,0.5424,1.0141,-0.5965,0.1406,-38.5,-7.25,1.0,171.51,31.54,-85.7,67321,2015-10-08 15:06:15:827
8.0828,-5.3247,1.9537,8.365,-4.982,1.1732,-0.2822,-0.3427,0.7804,1.061,-0.3132,-0.1214,-36.75,-4.0,2.5,168.16,31.34,-84.94,67421,2015-10-08 15:06:15:927
8.1403,-4.4819,3.5243,8.3926,-4.8062,1.6232,-0.2523,0.3242,1.901,0.8245,-0.0192,0.0575,-36.25,-4.0,3.0,156.29,29.79,-80.09,67521,2015-10-08 15:06:16:027
8.0828,-4.7118,2.6049,8.4346,-4.561,2.0556,-0.3517,-0.1508,0.5493,0.2748,0.1257,-0.2152,-36.75,-3.25,2.5,150.18,28.23,-77.21,67621,2015-10-08 15:06:16:127
8.6191,-4.2904,2.9113,8.4289,-4.4949,2.2183,0.1374,0.074,0.473,-0.4325,0.2407,-0.2748,-37.75,-4.0,2.25,150.49,27.49,-75.44,67721,2015-10-08 15:06:16:227
8.0637,-5.2672,2.739,8.3533,-4.5805,2.3261,-0.1719,-0.6515,0.3512,-0.3174,0.4815,0.1364,-37.0,-4.75,0.75,152.73,27.37,-74.76,67821,2015-10-08 15:06:16:327
8.4467,-4.4053,2.7581,8.2127,-4.7403,2.5001,0.4962,0.7322,0.3182,-0.897,0.6882,-0.032,-37.0,-4.0,0.25,152.71,28.58,-73.41,67921,2015-10-08 15:06:16:427
8.7915,-3.6583,2.624,8.1645,-4.7806,2.5801,0.7067,1.1259,0.06,-0.8607,0.5752,-0.1491,-37.0,-5.0,-2.0,157.08,29.18,-72.46,68021,2015-10-08 15:06:16:527
9.0022,-3.6966,2.5283,8.1258,-4.8934,2.4892,0.9519,1.1584,0.1392,-0.7798,0.2514,-0.0767,-37.5,-5.75,-5.0,165.16,29.65,-72.74,68121,2015-10-08 15:06:16:627
9.3661,-4.1372,2.9305,8.1118,-5.0181,2.2778,1.3464,0.9914,0.9286,-0.6732,-0.2407,0.1598,-38.5,-5.75,-6.75,170.88,30.38,-73.69,68221,2015-10-08 15:06:16:727
8.351,-5.2098,1.6855,8.0467,-5.3071,1.8046,0.1319,-0.0751,-0.4064,0.1001,-0.3814,0.4772,-39.75,-4.75,-7.75,176.55,32.02,-76.5,68321,2015-10-08 15:06:16:827
7.7189,-5.4205,1.5897,7.8902,-5.6059,1.5776,-0.1905,0.3578,-0.0644,0.1641,-0.343,0.2173,-42.5,-2.25,-6.5,175.57,33.66,-77.82,68421,2015-10-08 15:06:16:927
7.3358,-6.9719,0.747,7.8923,-5.7215,1.0711,-0.4224,-1.1164,0.0973,-0.2152,-0.8756,0.1385,-42.25,0.75,-4.5,173.06,35.39,-80.66,68521,2015-10-08 15:06:17:027
7.2401,-6.7612,-0.1724,7.9201,-5.783,-0.0126,-0.2203,-1.4571,-0.4663,-1.2975,-0.2109,-0.5987,-39.75,0.75,-1.25,179.62,36.3,-84.34,68621,2015-10-08 15:06:17:127
7.3933,-5.0757,-0.6321,8.1623,-5.3856,-0.7367,-0.769,0.3099,0.1047,-0.5603,0.0874,-0.179,-37.25,0.0,2.5,179.34,33.94,-94.27,68722,2015-10-08 15:06:17:228
7.4699,-4.6352,-1.0534,8.2061,-5.3297,-0.6513,-0.7362,0.6945,-0.4022,0.2237,0.1555,-0.0916,-37.0,-2.25,4.0,177.98,32.94,-94.98,68821,2015-10-08 15:06:17:327
9.0788,-3.8499,-1.0534,8.2472,-5.2939,-0.3595,0.8316,1.444,-0.694,0.6946,0.0426,-0.1896,-35.0,-4.25,3.75,174.82,33.03,-93.2,68921,2015-10-08 15:06:17:427
9.098,-4.7884,-1.4174,8.3665,-5.1153,-0.0795,0.6657,0.2627,-1.6276,1.1143,-0.4922,-0.1534,-36.25,-3.25,3.25,172.9,31.44,-90.54,69021,2015-10-08 15:06:17:527
8.1977,-4.6543,-0.4022,8.4632,-4.9539,-0.0512,-0.54,0.6662,-0.6702,0.8671,-0.4581,-0.0256,-36.5,-4.75,2.75,172.95,30.34,-90.35,69121,2015-10-08 15:06:17:627
8.7915,-4.9033,-0.3639,8.3752,-5.038,0.8032,0.7275,-0.3225,-0.8126,1.8813,-0.2642,0.4495,-36.0,-5.5,3.5,161.76,30.91,-84.52,69221,2015-10-08 15:06:17:727
7.6806,-5.1715,2.7007,8.3232,-5.0661,1.1085,-0.6426,-0.1053,1.5921,1.257,-0.4218,-0.066,-36.25,-5.0,4.0,158.77,31.1,-82.41,69321,2015-10-08 15:06:17:827
8.102,-4.5011,3.1603,8.4468,-4.7512,1.499,-0.3449,0.2501,1.6614,0.3686,-0.0575,-0.2194,-36.25,-4.5,4.0,153.99,29.46,-80.23,69421,2015-10-08 15:06:17:927
7.7381,-5.363,2.6432,8.3,-4.9403,1.695,-0.562,-0.4227,0.9482,0.4453,-0.0234,0.4495,-36.25,-7.0,4.25,153.8,28.93,-79.63,69522,2015-10-08 15:06:18:028
7.4508,-5.7844,2.0111,8.0804,-5.1913,1.9821,-0.6296,-0.5931,0.029,0.3941,0.2216,0.2812,-35.75,-6.25,4.25,152.63,31.59,-77.12,69621,2015-10-08 15:06:18:127
8.351,-5.3439,2.1644,7.9768,-5.2078,2.3281,0.3,-0.107,-0.1445,0.2322,0.2578,0.0085,-35.5,-4.0,4.0,149.28,32.32,-74.93,69722,2015-10-08 15:06:18:228
8.102,-5.612,2.2218,7.9383,-5.227,2.4148,0.1082,-0.1886,-0.2824,0.2088,0.0767,0.1321,-34.25,-3.0,4.0,144.81,32.08,-73.37,69822,2015-10-08 15:06:18:328
8.6383,-5.4396,2.1835,7.8378,-5.404,2.3531,0.674,-0.0758,-0.1981,-0.4346,0.0469,0.0085,-34.0,-4.5,4.75,144.1,33.08,-73.04,69921,2015-10-08 15:06:18:427
9.5193,-4.9991,3.9265,7.779,-5.5544,2.1923,1.7396,0.5545,1.7347,-0.3601,0.0767,0.0597,-33.75,-4.25,4.5,147.43,33.77,-73.81,70021,2015-10-08 15:06:18:527
7.5274,-4.2904,1.6281,7.7988,-5.5916,2.0208,-0.4544,1.3419,-0.5233,-0.2834,-0.1427,0.3622,-35.25,-4.5,5.0,148.11,34.76,-75.47,70122,2015-10-08 15:06:18:628
7.8338,-4.7118,2.1261,7.7481,-5.6996,1.911,0.277,0.3988,0.2504,0.8948,-0.4176,0.2067,-36.75,-6.5,4.25,152.01,35.32,-75.98,70221,2015-10-08 15:06:18:727
7.6423,-6.1866,0.8428,7.7594,-5.7173,1.8098,0.0362,-0.5594,-0.9329,0.8714,-1.2123,0.3792,-38.0,-4.25,6.0,147.7,35.4,-75.98,70322,2015-10-08 15:06:18:828
7.106,-6.3207,0.5746,7.7746,-5.823,1.349,-0.6686,-0.4977,-0.7744,0.5774,-1.387,0.2834,-37.75,-2.5,9.5,144.39,36.43,-80.16,70422,2015-10-08 15:06:18:928
8.2552,-7.4891,-0.3256,7.9063,-5.7953,0.2734,0.3489,-1.6937,-0.599,-0.1981,-0.767,-0.4581,-34.5,0.0,14.5,143.27,36.67,-82.34,70522,2015-10-08 15:06:19:028
7.1443,-5.6886,-0.249,8.1256,-5.4459,-0.698,-0.9813,-0.2427,0.449,0.0107,-0.8075,-0.4261,-32.5,1.5,20.75,131.68,34.34,-93.26,70622,2015-10-08 15:06:19:128
6.8187,-5.8227,-0.7853,8.0695,-5.5067,-0.8545,-1.2381,-0.0274,0.2487,0.7286,-0.343,0.0724,-29.5,0.25,25.75,130.06,33.51,-95.67,70721,2015-10-08 15:06:19:227
8.4467,-4.1755,-2.0303,8.0699,-5.5106,-0.8251,-0.3318,1.0478,-0.8988,0.897,-0.0724,-0.3174,-28.5,0.75,28.75,122.37,34.19,-95.84,70821,2015-10-08 15:06:19:327
7.7764,-6.6463,-1.2833,8.2069,-5.3564,-0.3555,-0.4305,-1.2899,-0.9278,1.3635,0.0149,-0.1172,-28.25,1.25,30.0,117.78,33.11,-92.48,70921,2015-10-08 15:06:19:427
6.9528,-5.6503,0.249,8.047,-5.5704,0.6226,-0.1706,-0.3615,-0.1617,1.1484,0.1917,0.0746,-28.25,4.0,29.0,111.15,34.44,-87.23,71021,2015-10-08 15:06:19:527
7.9679,-4.8459,1.6472,8.0317,-5.5594,0.8693,-0.3764,0.431,0.7158,-0.3494,0.5944,-0.2898,-26.25,9.0,26.25,101.16,34.53,-83.82,71121,2015-10-08 15:06:19:627
7.9871,-4.865,2.7198,8.1431,-5.313,1.2779,-0.156,0.448,1.4419,0.0831,0.3643,-0.2003,-25.5,9.5,26.0,97.82,34.25,-83.15,71221,2015-10-08 15:06:19:727
7.4699,-5.6886,2.5474,8.0829,-5.2599,1.7807,-0.0481,-0.507,0.7753,-0.3238,0.5518,0.0511,-26.75,9.0,22.25,98.35,32.44,-77.58,71321,2015-10-08 15:06:19:827
7.8147,-5.6695,2.0111,7.9279,-5.4077,2.0187,-0.3214,-0.1239,0.0549,-0.7393,0.7798,-0.049,-27.75,8.5,21.25,99.85,32.84,-76.92,71421,2015-10-08 15:06:19:927
8.8298,-5.0182,1.5323,7.7962,-5.5687,2.0929,1.0337,0.5504,-0.5606,-0.5923,0.3771,0.0682,-29.0,8.0,19.0,104.15,34.6,-74.97,71521,2015-10-08 15:06:20:027
8.351,-5.2289,1.5323,7.744,-5.6788,1.988,0.607,0.4498,-0.4557,-0.3941,0.2365,0.0298,-30.25,8.0,17.75,106.83,35.12,-75.43,71621,2015-10-08 15:06:20:127
8.102,-6.5122,2.3176,7.6718,-5.8588,1.729,0.4302,-0.6535,0.5886,-0.9587,0.0682,0.0852,-30.5,6.75,16.5,107.13,35.39,-75.6,71722,2015-10-08 15:06:20:228
6.9719,-6.6463,0.4788,7.3033,-6.4169,1.2866,-0.1973,-0.2677,-0.5013,-1.2655,0.441,0.2642,-31.0,6.5,16.25,110.87,36.69,-77.3,71822,2015-10-08 15:06:20:328
8.0062,-5.4588,1.245,7.2397,-6.5593,0.8555,0.9963,1.2538,0.4469,-1.2165,0.4368,-0.0192,-30.0,5.5,16.25,121.76,40.87,-80.01,71921,2015-10-08 15:06:20:427
7.4124,-6.2632,0.1149,7.3802,-6.4492,0.3317,0.0322,0.186,-0.2168,0.4581,-1.0653,0.0959,-29.75,5.5,16.25,128.82,41.33,-86.01,72021,2015-10-08 15:06:20:527
6.7612,-7.2018,-0.9002,7.2456,-6.6055,-0.1979,-0.7065,-0.6851,-0.5194,0.1811,-0.8458,0.0618,-30.75,4.25,16.5,131.75,41.12,-87.43,72121,2015-10-08 15:06:20:627
6.857,-7.2401,-0.3448,7.2184,-6.62,-0.4897,-0.3615,-0.62,0.1449,0.0575,-0.2621,0.0852,-29.5,3.25,19.25,138.52,42.34,-91.56,72221,2015-10-08 15:06:20:727
6.0717,-6.359,-0.6704,7.1388,-6.7024,-0.5336,-1.1246,0.3434,-0.1368,0.1087,0.1577,0.0767,-25.75,4.25,21.75,128.93,42.92,-94.78,72321,2015-10-08 15:06:20:827
6.6846,-6.3782,-1.5131,7.0799,-6.7766,-0.3517,-0.3953,0.3984,-1.1615,-0.0575,0.3792,0.1214,-24.75,5.0,22.75,124.12,43.55,-93.48,72421,2015-10-08 15:06:20:927
8.5808,-6.5122,-1.5514,7.1904,-6.6656,-0.1936,0.7106,-0.089,-0.3599,0.1065,0.3878,-0.473,-24.5,5.75,22.75,119.78,43.53,-91.91,72521,2015-10-08 15:06:21:027
7.6423,-7.2784,1.8771,7.3641,-6.4617,0.4327,0.0531,-1.2415,1.109,0.995,-0.1704,-0.0639,-25.75,6.25,21.75,119.93,41.55,-89.83,72621,2015-10-08 15:06:21:127
7.5848,-6.1483,1.8771,7.4064,-6.3454,1.0253,0.2813,0.1367,0.9025,0.4027,0.2642,-0.2514,-26.75,5.25,20.75,119.12,41.22,-86.64,72722,2015-10-08 15:06:21:228
7.7764,-6.0908,2.4517,7.4786,-6.2236,1.2281,0.3076,0.1499,1.251,-0.0405,0.2727,-0.0746,-26.5,4.75,18.5,115.36,40.32,-82.12,72822,2015-10-08 15:06:21:328
7.8721,-5.7844,2.0111,7.5569,-6.0781,1.4561,0.3272,0.3118,0.5688,-0.4474,0.4858,-0.1854,-27.25,5.0,17.75,115.68,39.39,-80.67,72921,2015-10-08 15:06:21:427
8.1211,-5.4013,1.7047,7.6347,-5.9529,1.5636,0.5056,0.5707,0.141,-0.5923,0.4858,-0.2088,-26.75,4.25,16.5,114.16,38.1,-78.86,73021,2015-10-08 15:06:21:527
8.2361,-5.4205,1.6855,7.721,-5.8314,1.597,0.4576,0.3726,0.1268,-0.4091,0.3047,-0.115,-27.25,4.25,15.0,115.66,37.37,-78.43,73121,2015-10-08 15:06:21:627
7.9487,-5.6503,1.7621,7.7446,-5.8024,1.5887,0.1613,0.1465,0.29,-0.2322,0.1108,0.0107,-28.0,2.75,13.5,122.03,36.26,-78.32,73222,2015-10-08 15:06:21:728
8.102,-5.5162,1.6089,7.7692,-5.7686,1.5916,0.3136,0.2332,0.0173,-0.0618,0.0575,-0.0021,-28.5,2.25,12.5,125.41,36.19,-78.44,73322,2015-10-08 15:06:21:828
8.1977,-5.2864,1.5514,7.7949,-5.7539,1.5175,0.3837,0.4484,0.1106,-0.2706,0.0895,0.1044,-29.75,1.0,12.0,130.5,35.95,-78.68,73421,2015-10-08 15:06:21:927
8.1211,-5.4396,1.5323,7.788,-5.7935,1.3977,0.3358,0.3615,0.1515,-0.1129,-0.147,0.1257,-30.75,0.25,12.25,133.97,36.05,-79.77,73521,2015-10-08 15:06:22:027
8.0828,-5.6886,1.3408,7.7263,-5.8943,1.3162,0.3566,0.2057,0.0246,-0.098,-0.0746,0.1811,-30.75,-0.25,12.25,134.88,36.65,-80.22,73621,2015-10-08 15:06:22:127
8.0445,-5.6312,1.9728,7.6472,-6.0117,1.2454,0.3974,0.3805,0.7274,-0.4431,0.0298,0.1981,-30.0,-0.5,12.5,132.96,37.25,-80.41,73722,2015-10-08 15:06:22:228
7.1635,-7.4508,2.3176,7.561,-6.144,1.1197,-0.7036,-1.6239,0.5673,-0.375,0.0341,-0.0341,-29.25,1.25,13.0,132.73,38.55,-81.41,73822,2015-10-08 15:06:22:328
6.4739,-8.102,0.5171,7.1976,-6.6145,0.7833,-1.1356,-1.0615,-0.1454,-0.8906,0.3856,0.3366,-30.0,1.5,13.25,135.79,41.15,-82.96,73921,2015-10-08 15:06:22:427
6.8378,-6.857,0.6321,7.0416,-6.8164,0.3516,-0.1025,-0.013,0.1872,-1.4871,0.5774,0.0426,-29.5,1.25,13.5,139.35,43.8,-85.99,74021,2015-10-08 15:06:22:527
7.4508,-6.7421,-0.8619,7.006,-6.8483,-0.4329,0.3259,0.0513,-0.2639,-1.3657,0.4645,0.1577,-29.75,2.5,12.0,150.24,44.35,-92.03,74121,2015-10-08 15:06:22:627
7.4316,-6.3207,-1.3408,7.0387,-6.7775,-0.8324,0.3929,0.4568,-0.5084,-1.1164,0.4261,0.081,-29.5,1.0,12.5,151.26,44.29,-93.54,74221,2015-10-08 15:06:22:727
6.8187,-6.0334,-1.0918,7.0712,-6.6878,-1.2007,-0.2525,0.6545,0.1089,-0.539,0.3004,0.1406,-30.0,0.5,11.75,161.39,43.22,-99.24,74321,2015-10-08 15:06:22:827
7.4316,-6.5505,-1.245,7.0543,-6.7057,-1.2005,0.3773,0.1551,-0.0444,0.1683,0.0916,0.1364,-29.75,0.0,9.5,167.49,42.98,-99.83,74421,2015-10-08 15:06:22:927
7.3933,-6.5888,-1.2641,6.96,-6.8187,-1.1105,0.146,0.249,-0.1728,-0.0895,0.196,0.13,-30.75,0.5,8.75,169.48,44.05,-99.07,74521,2015-10-08 15:06:23:027
6.8378,-6.8761,-1.0343,6.9615,-6.8255,-1.0587,-0.0279,0.026,0.0436,0.1641,-0.0085,0.0724,-30.75,0.5,8.0,171.39,44.11,-98.65,74621,2015-10-08 15:06:23:127
6.608,-7.5465,-0.9768,6.8735,-6.941,-0.8649,-0.1888,-0.4906,-0.1503,0.1832,0.1662,0.0831,-31.0,1.0,7.75,171.12,44.32,-98.44,74721,2015-10-08 15:06:23:227
6.857,-7.1826,-0.6512,6.8494,-6.971,-0.8138,0.1417,-0.0201,0.1818,-0.2131,0.0767,0.1023,-30.75,2.0,7.75,168.37,45.11,-96.69,74821,2015-10-08 15:06:23:327
7.2975,-6.9145,-0.7087,6.8317,-6.9763,-0.9107,0.4659,0.0619,0.3169,-0.1406,-0.0107,0.0554,-31.25,2.25,7.0,172.33,45.35,-97.59,74922,2015-10-08 15:06:23:428
7.3167,-6.5505,-0.8428,6.8082,-6.9998,-0.9064,0.451,0.3534,-0.0129,0.0852,-0.1406,0.0703,-31.75,1.0,7.0,173.15,45.54,-97.58,75021,2015-10-08 15:06:23:527
7.0868,-6.6655,-0.8045,6.8183,-6.9864,-0.933,0.3146,0.3487,0.1054,0.2173,-0.2173,-0.0362,-31.5,2.0,7.5,169.98,45.34,-97.75,75121,2015-10-08 15:06:23:627
6.8187,-7.1443,-0.7278,6.7707,-7.0421,-0.8584,0.1887,0.113,0.2474,0.3345,-0.1321,0.0788,-32.0,2.25,8.0,171.15,45.51,-97.65,75221,2015-10-08 15:06:23:727
6.3782,-7.1443,-0.6129,6.7444,-7.0761,-0.7826,-0.2059,-0.0804,0.1187,-0.1001,0.0639,-0.1854,-31.5,2.0,9.5,163.75,46.34,-96.66,75321,2015-10-08 15:06:23:827
6.9528,-7.1826,-1.3408,6.8007,-7.0047,-0.9244,0.1878,-0.4458,-0.3407,-0.2088,0.0043,0.0277,-31.75,2.5,9.25,166.33,45.89,-96.88,75421,2015-10-08 15:06:23:927
6.9911,-7.0294,-0.5938,6.765,-7.031,-0.9854,0.2644,-0.0367,0.3342,-0.1236,0.0767,0.0916,-32.5,2.25,10.25,166.25,45.63,-98.29,75521,2015-10-08 15:06:24:027
6.6846,-7.2401,-1.2258,6.7596,-7.0229,-1.0759,-0.0367,-0.1597,0.0416,0.0383,-0.0746,-0.0043,-33.0,1.25,9.75,168.84,45.74,-99.04,75621,2015-10-08 15:06:24:127
6.7038,-7.1251,-1.2258,6.7183,-7.0505,-1.1509,0.0238,-0.0938,0.2315,0.0213,-0.2855,0.115,-32.25,2.25,9.5,168.8,45.97,-99.72,75721,2015-10-08 15:06:24:227
7.0294,-6.6272,-0.5746,6.7059,-7.0708,-1.0981,0.3044,0.3479,0.466,0.0511,-0.0831,0.0447,-32.75,3.0,10.25,168.64,46.14,-99.3,75821,2015-10-08 15:06:24:327
6.6272,-6.9719,-1.2258,6.709,-7.0674,-1.1008,-0.1133,0.0834,-0.0838,0.0682,-0.0575,-0.0149,-32.75,2.5,10.25,168.66,46.11,-99.32,75922,2015-10-08 15:06:24:428
6.6846,-7.2401,-1.5131,6.7325,-7.0499,-1.0692,-0.0357,-0.2137,-0.2929,0.1364,0.0447,0.1214,-33.25,1.75,10.0,168.53,45.96,-99.02,76022,2015-10-08 15:06:24:528
7.3358,-6.7995,-1.2067,6.7369,-7.0612,-0.9609,0.7037,0.3651,-0.1807,0.1854,-0.0788,-0.0213,-32.75,2.0,10.25,168.53,45.96,-99.02,76122,2015-10-08 15:06:24:628
6.9145,-6.9528,-1.1492,6.7201,-7.076,-0.9698,0.1943,0.1233,-0.1795,0.0511,-0.1683,-0.0234,-32.5,1.5,10.0,167.25,46.06,-98.12,76222,2015-10-08 15:06:24:728
7.0677,-7.1443,-1.0726,6.7647,-7.0245,-1.0327,0.303,-0.1198,-0.0399,0.1427,-0.3473,-0.081,-33.0,3.0,9.75,167.76,46.18,-98.21,76322,2015-10-08 15:06:24:828
6.857,-7.0294,-0.9577,6.7121,-7.0726,-1.0472,-0.1578,-0.3152,-0.2235,0.0916,-0.1129,0.0533,-33.25,3.5,11.25,165.25,46.15,-98.87,76422,2015-10-08 15:06:24:928
7.0677,-6.8378,-1.4365,6.7391,-7.0345,-1.1272,0.2711,0.4265,0.2078,0.1683,-0.2088,-0.1385,-32.25,3.5,11.25,165.25,45.83,-99.5,76522,2015-10-08 15:06:25:028
7.1635,-7.106,-1.2067,6.8609,-6.8996,-1.2221,0.3025,-0.2064,0.0155,0.0597,-0.1981,-0.1747,-31.5,1.5,12.0,163.69,45.0,-99.88,76622,2015-10-08 15:06:25:128
6.5888,-6.6655,-1.5131,7.1328,-6.5458,-1.564,-0.0785,-0.0118,0.2544,-0.6008,0.0511,-0.6434,-31.75,2.0,13.0,163.15,43.8,-100.98,76722,2015-10-08 15:06:25:228
6.8761,-6.2058,-2.3176,7.3937,-6.1824,-1.8118,-0.6325,-0.0467,-0.8495,-0.3174,0.1917,-0.3153,-31.5,0.5,13.25,165.4,39.08,-103.77,76822,2015-10-08 15:06:25:328
8.0637,-4.9416,-2.3559,7.6602,-5.9077,-1.6097,-0.0715,0.3214,-0.5778,-0.2578,0.5412,-0.1641,-31.75,-1.0,12.5,166.76,38.56,-103.46,76921,2015-10-08 15:06:25:427
7.7764,-3.6966,-1.494,7.9252,-5.6291,-1.2941,-0.1104,2.01,-0.3339,0.4559,0.0937,-0.0064,-32.0,-4.5,10.75,167.9,35.9,-100.64,77021,2015-10-08 15:06:25:527
