ACCELEROMETER X (m/s²),ACCELEROMETER Y (m/s²),ACCELEROMETER Z (m/s²),GRAVITY X (m/s²),GRAVITY Y (m/s²),GRAVITY Z (m/s²),LINEAR ACCELERATION X (m/s²),LINEAR ACCELERATION Y (m/s²),LINEAR ACCELERATION Z (m/s²),GYROSCOPE X (rad/s),GYROSCOPE Y (rad/s),GYROSCOPE Z (rad/s),MAGNETIC FIELD X (μT),MAGNETIC FIELD Y (μT),MAGNETIC FIELD Z (μT),ORIENTATION Z (azimuth °),ORIENTATION X (pitch °),ORIENTATION Y (roll °),Time since start in ms ,YYYY-MO-DD HH-MI-SS_SSS,state
1.3982,0.9194,11.9902,1.4265,1.2375,9.6231,0.0077,-0.4504,2.2891,-0.5135,-0.4389,0.1854,-13.75,17.25,-43.5,16.68,-9.87,-6.01,54,2015-10-07 16:26:13:037,0
1.8387,1.5323,9.6726,1.6696,1.111,9.5994,0.1912,0.4869,0.1779,-0.1875,0.2599,-0.0383,-15,19.5,-43,17.58,-6.52,-9.23,154,2015-10-07 16:26:13:137,0
2.1835,1.6855,9.481,1.4569,1.2527,9.6166,0.7266,0.4328,-0.1355,0.2003,0.115,-0.3302,-16.25,20.5,-42.25,20.34,-6.34,-8.6,254,2015-10-07 16:26:13:237,0
0.6129,1.9728,9.7683,1.3678,1.6091,9.5765,-0.7549,0.3637,0.1918,0.5198,-0.2322,0.179,-14.75,20,-42.75,20.7,-7.84,-8.33,355,2015-10-07 16:26:13:338,0
1.4557,2.0877,9.7875,1.4379,1.9439,9.5039,0.0178,0.1439,0.2836,0.2003,-0.115,0.2919,-15.5,18,-42,17.95,-11.37,-8.65,455,2015-10-07 16:26:13:438,0
1.6089,2.375,8.5808,1.5784,2.2196,9.4208,0.0462,0.1863,-1.1428,-0.1449,0.5092,0.1768,-15.75,18.5,-43.25,17.33,-12.45,-9.33,555,2015-10-07 16:26:13:538,0
1.0343,2.2601,9.232,1.0461,2.1927,9.501,-0.0118,0.0674,-0.2689,0.1619,0.3111,0.2961,-15.5,16.25,-43.75,20.14,-12.85,-7.12,655,2015-10-07 16:26:13:638,0
0.9768,2.8922,8.5617,0.8732,2.3927,9.4701,0.1563,0.5053,-1.1588,-0.0575,0.6242,0.1641,-14.75,16.5,-44.25,21.17,-13.78,-5.68,755,2015-10-07 16:26:13:738,0
1.1301,2.8347,9.6534,0.645,2.2069,9.5333,0.4507,0.614,-0.2351,-0.3451,0.441,0.3941,-12.75,16,-45.5,20.35,-13.78,-4.02,855,2015-10-07 16:26:13:838,0
0.5938,2.4134,10.1514,0.402,2.1358,9.5628,0.1918,0.2775,0.5886,0.2429,-0.0213,0.5603,-10.5,16,-44.75,17.09,-12.24,-2.83,955,2015-10-07 16:26:13:938,0
1.5897,2.3367,10.0556,0.6019,2.3336,9.5059,0.9879,0.0032,0.5497,0.1172,-0.0788,0.1321,-7.75,16.25,-45.5,11.44,-13.5,-3.43,1055,2015-10-07 16:26:14:038,0
0.2107,1.9345,9.1363,0.6492,2.6758,9.4122,-0.0192,-0.3581,-0.6597,0.5348,-0.5561,0.3324,-7,16.75,-46,8.74,-15.14,-3.25,1154,2015-10-07 16:26:14:137,0
0.9002,2.6049,8.5808,0.9539,3.0869,9.2591,-0.0537,-0.482,-0.6783,0.1278,0.2919,0.277,-6,14.75,-46.75,3.48,-17.02,-5.26,1254,2015-10-07 16:26:14:237,0
0.6129,2.6049,9.4619,0.6529,3.154,9.2626,-0.1932,-0.4916,-0.0881,0.1747,0.5028,0.0213,-5.5,13.25,-47.25,3.15,-18.57,-5.45,1355,2015-10-07 16:26:14:338,0
0.0766,2.1835,9.3853,0.3372,3.1375,9.2851,-0.2223,-0.7625,0.0427,0.1598,0.522,0.2386,-5,12.5,-46.75,5.4,-18.43,-2.95,1456,2015-10-07 16:26:14:439,0
0.2298,2.6049,9.596,-0.0756,2.9623,9.3482,0.3821,-0.2808,-0.0396,-0.3047,0.4474,-0.0234,-4,12.25,-47.75,6.2,-18.79,-1.36,1555,2015-10-07 16:26:14:538,0
0.0766,2.5283,8.8681,-0.2773,2.8564,9.3773,0.3731,0.0166,-0.2219,0.0021,0.1023,-0.2535,-2,10.5,-47.75,7.95,-16.93,1.69,1655,2015-10-07 16:26:14:638,0
-0.9002,2.49,9.2129,-0.4483,2.8185,9.3822,-0.4519,-0.3286,-0.1693,-0.049,-0.081,0.0831,0.5,12.75,-47.5,2.91,-16.72,2.83,1755,2015-10-07 16:26:14:738,0
-0.0383,2.3559,8.351,-0.2557,2.6976,9.4249,-0.0294,0.268,-0.7533,-0.2344,-0.3388,-0.1768,1,12.75,-48,0.67,-15.97,1.55,1855,2015-10-07 16:26:14:838,0
0.498,2.7007,8.8298,0.1725,2.4677,9.4895,0.3653,-0.385,0.456,-0.066,-0.7286,-0.5284,2.25,12.25,-48.75,353.11,-14.57,-1.04,1954,2015-10-07 16:26:14:937,0
1.1684,2.8156,9.347,0.8571,2.3557,9.4809,0.3113,0.4599,-0.1339,-0.1513,-0.6839,-0.6115,0,11.5,-48.75,349.31,-13.9,-5.17,2055,2015-10-07 16:26:15:038,0
0.0575,3.6583,8.6191,1.0961,2.5163,9.4147,-1.1557,1.2089,-1.0969,0.179,-0.3643,-0.3473,-3.5,12,-48.5,353.28,-13.87,-5.69,2155,2015-10-07 16:26:15:138,0
0.9577,2.5091,9.596,1.4421,2.1682,9.4546,-0.3815,0.252,0.1829,-0.4389,-0.3494,-0.3451,-5.75,13.5,-47.5,358.16,-13.32,-8.23,2255,2015-10-07 16:26:15:238,0
1.0726,2.0303,9.9216,1.4503,2.2223,9.4408,-0.6862,0.1089,0.4381,0.2493,-0.0874,0.1427,-7.5,14.5,-47.25,359.43,-12.65,-8.77,2355,2015-10-07 16:26:15:338,0
1.0726,1.5706,9.6726,0.8754,2.3259,9.4865,-0.244,-0.7843,-0.1245,0.4794,1.5723,0.3089,-9.25,14.5,-46.5,10.47,-13.72,-5.27,2456,2015-10-07 16:26:15:439,0
1.494,1.5323,9.5193,0.3362,2.8838,9.367,2.3605,-1.3129,1.0127,0.7244,-0.8991,0.1491,-5.5,13.75,-45.5,17.53,-15.44,0.16,2554,2015-10-07 16:26:15:537,0
-0.3639,3.122,5.8802,0.2162,2.942,9.3525,-0.5801,0.1801,-3.4723,-1.1824,2.1177,-0.1981,-0.75,11.75,-47.25,357.8,-18.2,-3.81,2654,2015-10-07 16:26:15:637,0
-0.3831,2.1069,10.1706,-0.7565,2.358,9.4888,0.3734,-0.2511,0.6817,-0.8629,1.0099,0.7968,0.75,11.25,-47,7.11,-13.91,4.56,2755,2015-10-07 16:26:15:738,0
-1.0151,2.3559,9.481,-1.5766,2.2483,9.4143,0.5615,0.1075,0.0667,-0.1747,1.0397,0.4368,4.75,12,-46.5,6.83,-13.25,9.51,2855,2015-10-07 16:26:15:838,0
-1.5706,2.5666,9.232,-2.0167,2.3901,9.2947,0.4461,0.1765,-0.0626,-0.1726,0.4176,0.3835,10.5,12.25,-46.75,358.08,-14.11,12.24,2955,2015-10-07 16:26:15:938,0
-1.5706,2.8539,9.0405,-2.1841,2.3873,9.2575,0.5248,0.4381,-0.1363,-0.0831,0.277,0.5838,15.25,11.25,-47,350.46,-14.09,13.28,3055,2015-10-07 16:26:16:038,0
-1.5514,2.7773,8.9447,-2.274,2.4545,9.2182,0.8184,0.4952,-0.101,-0.098,0.3515,0.6264,17.25,10.75,-46.25,350.46,-14.09,13.28,3154,2015-10-07 16:26:16:137,0
-1.0726,2.2601,10.8026,-2.1975,2.4115,9.248,1.1249,-0.1514,1.5546,-0.196,-0.13,0.6519,19,11.5,-45.25,342.62,-14.65,14.11,3255,2015-10-07 16:26:16:238,0
-0.9194,1.9537,9.1746,-1.6656,2.181,9.4148,0.7462,-0.2274,-0.2403,-0.2258,-0.3856,-0.1768,22.5,11.25,-45.25,327.18,-13.24,10.9,3354,2015-10-07 16:26:16:337,0
-1.9537,1.5131,9.3853,-1.5982,2.0805,9.4492,-0.3555,-0.5674,-0.0639,0.1172,0.2961,-0.3537,25.5,13.5,-45,321.8,-12.4,8.65,3455,2015-10-07 16:26:16:438,0
-3.1987,1.6472,9.2703,-1.8308,2.139,9.3938,-1.3678,-0.4918,-0.1234,0.1598,-0.0362,0.0192,25.25,16.5,-44.75,325.51,-12.25,9.6,3555,2015-10-07 16:26:16:538,0
-2.6624,1.2833,9.3087,-1.7201,1.987,9.4479,-0.9422,-0.7037,-0.1393,-0.3537,-0.1747,-0.0916,24.75,17,-44.75,329.28,-12.47,10.79,3655,2015-10-07 16:26:16:638,0
-1.7621,2.0303,9.0022,-1.638,1.6035,9.535,-0.1241,0.4268,-0.5328,-0.1406,-0.2727,-0.3707,24.25,19.5,-44,330.19,-9.74,10.11,3755,2015-10-07 16:26:16:738,0
-2.1644,1.8771,8.9256,-1.968,1.8852,9.4204,-0.1581,-0.0387,-0.4805,0.1854,0.4325,-0.0234,22.75,20,-45.5,333.96,-10.61,11.02,3855,2015-10-07 16:26:16:838,0
-2.6432,2.2218,9.2703,-2.3519,2.1042,9.285,-0.321,0.0113,0.124,0.2365,0.1214,-0.0383,21,20.75,-44.5,341.64,-11.74,13.62,3955,2015-10-07 16:26:16:938,0
-2.3367,2.6432,9.73,-2.2385,2.0902,9.3162,-0.0961,0.5002,0.6149,-0.0085,-0.5475,-0.3984,21.5,18.5,-44.5,338.89,-12.31,13.51,4055,2015-10-07 16:26:17:038,0
-1.9728,3.0263,9.5768,-1.5034,2.2385,9.4286,-0.65,1.1275,-0.0653,0.3984,-1.0397,-0.2876,20.5,17.5,-44.5,338.35,-12.58,12.38,4155,2015-10-07 16:26:17:138,0
-1.6281,3.735,9.232,-0.7709,2.6487,9.4106,-1.4251,0.4964,-0.0525,0.5198,-0.8948,-0.4027,14,18,-45.25,338.46,-13.85,7.36,4254,2015-10-07 16:26:17:237,0
-1.8579,2.739,8.1211,-0.8174,2.5243,9.4409,-1.0405,0.2147,-1.3198,0.0639,0.1087,-0.7862,8.75,17.75,-45.75,350.35,-14.92,4.95,4354,2015-10-07 16:26:17:337,0
-0.8236,2.4517,8.5425,-1.1052,2.4443,9.4326,0.3008,-0.2416,-0.7943,-0.0746,0.2429,-0.2876,8,16.5,-46.25,354.73,-14.43,6.68,4455,2015-10-07 16:26:17:438,0
-0.8428,1.9728,10.4579,-1.4567,2.427,9.3893,0.5182,-0.3584,0.992,-0.017,0.4155,-0.0959,11.25,13.5,-46.75,351.69,-14.16,8.77,4554,2015-10-07 16:26:17:537,0
-0.4405,2.2218,8.849,-0.6632,2.4982,9.4599,0.2226,-0.2764,-0.6109,0.0874,-1.632,0.2898,12.25,15.25,-47,346.67,-14.61,6.84,4655,2015-10-07 16:26:17:638,0
0.5938,1.9154,6.3398,0.049,2.5891,9.4586,0.5448,-0.6737,-3.1187,-0.1321,-0.2237,0.3941,7.75,16.5,-46.25,345,-15.62,0.36,4754,2015-10-07 16:26:17:737,0
0.2873,1.3024,9.5768,-0.1009,1.7875,9.6418,0.733,-0.983,-0.1225,-0.6306,0.0597,0.3345,4.5,18.25,-46.25,347.58,-14.01,-0.37,4855,2015-10-07 16:26:17:838,0
0.3639,1.8771,10.2663,0.1387,1.5867,9.6764,0.0528,0.2903,0.6665,-0.1364,-0.8735,0.4602,5,21.75,-44.75,348.98,-9.31,-0.82,4955,2015-10-07 16:26:17:938,0
0.5555,2.3176,9.0214,0.2682,1.6684,9.66,0.2872,0.6492,-0.6386,0.13,0.0597,0.4346,5.5,24,-43.5,346.09,-9.3,-2.11,5054,2015-10-07 16:26:18:037,0
0.3639,3.1795,10.2089,-0.107,1.8698,9.6262,0.4709,1.3097,0.5827,0.1747,0.1087,0.392,6,23.5,-43.25,349.17,-10.63,-0.04,5155,2015-10-07 16:26:18:138,0
1.5323,3.0837,9.9024,-0.0678,2.2841,9.5367,1.3894,0.8763,0.1742,0.3963,0.4005,-0.0064,7.25,20.75,-44,346.93,-12.67,0,5255,2015-10-07 16:26:18:238,0
1.743,1.992,10.2663,0.0528,2.3536,9.5199,1.7476,-0.534,0.8422,-0.4069,0.2983,-0.0213,11,19.75,-44.75,339.57,-13.89,-0.32,5355,2015-10-07 16:26:18:338,0
0.0575,1.5706,8.849,-0.1723,2.0356,9.5915,0.2298,-0.465,-0.7425,-0.0362,0.1449,-0.228,11.75,19.5,-45,338.87,-11.98,1.03,5455,2015-10-07 16:26:18:438,0
-1.5323,1.3599,9.0788,-0.4874,2.0027,9.5876,-1.0449,-0.6428,-0.5088,0.2748,-0.1065,-0.0192,12,20.5,-44.25,341.8,-11.78,2.91,5555,2015-10-07 16:26:18:538,0
-1.0151,1.5131,9.4236,-0.5825,2.16,9.5481,-1.0264,-0.8001,0.316,0.4091,-0.1491,0.049,12.25,20,-44.5,342.42,-12.72,3.49,5655,2015-10-07 16:26:18:638,0
-0.3065,1.5131,9.2895,-0.2573,2.2813,9.5341,0.1829,-0.9254,0.3008,0.0511,-0.3643,-0.2429,13,19.25,-44.25,339.46,-13.48,2.83,5754,2015-10-07 16:26:18:737,0
0.4788,1.7238,8.4851,0.2365,2.235,9.5456,0.3514,-0.5097,-1.063,-0.0383,-0.6711,-0.6669,13,18.5,-45,335.1,-13.2,-0.44,5855,2015-10-07 16:26:18:838,0
1.4748,1.7238,8.5234,1.6617,2.3053,9.3859,0.2911,-0.5227,-0.9488,0.2152,-3.0254,-1.1697,9.5,18.75,-45.75,328.1,-13.6,-10.04,5954,2015-10-07 16:26:18:937,0
3.3519,3.7158,5.4588,4.1253,2.8377,8.4321,-1.2139,-2.0907,-1.2686,0.9864,-3.0893,-1.6085,0,18.75,-44.25,330.39,-14.16,-14.81,6054,2015-10-07 16:26:19:037,0
5.8802,0.4788,8.8107,5.783,2.2637,7.5896,0.3078,-2.302,0.5123,-1.4701,-2.1625,-0.3153,-13.25,16.25,-39.75,335.01,-15.84,-35,6155,2015-10-07 16:26:19:138,0
6.0717,-1.3216,8.4084,6.7319,1.1874,7.0315,-1.0241,-2.1643,0.7066,-2.0538,-2.3201,0.4453,-22.75,18.25,-35.25,335.94,-11.22,-41.29,6255,2015-10-07 16:26:19:238,0
8.9639,-3.4668,4.7501,8.4673,-0.6359,4.9062,0.4966,-2.8309,-0.1561,-1.9835,-2.4032,1.3444,-30.25,24,-27,344.01,-2.51,-49.25,6355,2015-10-07 16:26:19:338,0
8.8298,-6.8953,1.9345,9.1236,-2.9268,2.089,-0.2938,-3.9685,-0.1545,-0.8352,-3.982,2.987,-34.75,31,-14.5,337.7,11.62,-68.85,6455,2015-10-07 16:26:19:438,0
12.7755,-8.2361,0.498,6.9133,-6.5498,-2.3404,5.8622,-1.6862,2.8384,-0.4943,-4.7703,3.7156,-31.75,39.75,0.5,338.77,36.43,-101.17,6554,2015-10-07 16:26:19:537,0
9.4236,-6.0334,0.4405,6.0763,-7.4206,-2.0453,3.3473,1.3872,2.4858,-0.1193,1.9942,1.0972,-18,48.75,15.5,26.39,48.12,-112.7,6654,2015-10-07 16:26:19:637,0
7.4316,-4.9033,-2.4325,6.0971,-7.6341,-0.8465,1.3345,2.7307,-1.586,0.0021,0.9928,0.3707,-9.75,52.75,20.5,38.82,50.12,-104.12,6755,2015-10-07 16:26:19:738,0
7.9487,-5.4205,-0.9385,6.1839,-7.5569,-0.9075,1.7649,2.1364,-0.031,-1.3209,1.5574,0.1832,-7.25,52.5,18.5,34.38,50.8,-98.01,6854,2015-10-07 16:26:19:837,0
7.8147,-5.8802,-1.992,6.5092,-7.2944,-0.77,1.3055,1.4142,-1.2219,-0.3899,0.8906,-0.3579,-8.25,49.75,20.5,38.57,48.94,-97.35,6954,2015-10-07 16:26:19:937,0
8.2935,-7.853,-1.8771,6.6339,-7.1891,-0.692,1.8179,-0.2408,-1.2477,0.1385,-0.1129,0.3515,-11.5,48.5,20.25,38.25,47.15,-95.95,7054,2015-10-07 16:26:20:037,0
6.857,-5.9759,-1.5514,6.6237,-7.2,-0.676,0.1262,1.7041,-0.8107,0.0256,0.2599,-0.0703,-12.5,48.5,20.5,40.62,47.24,-95.83,7155,2015-10-07 16:26:20:138,0
8.5425,-8.8298,-1.2641,6.9858,-6.7798,-1.1843,2.3228,-2.3756,-1.1333,-1.7598,0.3665,-0.9183,-12.25,49.25,21,40.01,45.94,-96.67,7255,2015-10-07 16:26:20:238,0
5.612,-7.5848,-0.5938,7.7449,-5.7909,-1.6286,-2.1329,-1.7939,1.0349,-0.6924,0.2791,-0.9076,-17.25,45.75,24.25,39.34,36.19,-101.88,7354,2015-10-07 16:26:20:337,0
6.0334,-6.4548,-1.2067,7.8792,-5.4735,-2.0322,-1.7691,-0.8472,0.8255,-0.5475,-0.3281,-0.2706,-20.75,40.25,26.5,49.14,33.93,-104.46,7455,2015-10-07 16:26:20:438,0
6.8187,-5.9376,-1.1875,7.6958,-5.5623,-2.4507,-0.858,-0.3371,1.3206,-0.8181,-0.1939,0.3537,-21.75,35,29,51.66,33.94,-105.64,7554,2015-10-07 16:26:20:537,0
7.7189,-5.363,-2.0111,7.3306,-5.8344,-2.8971,0.4858,0.5784,0.9062,-0.3878,-0.3537,0.6541,-21,33.25,31.75,63.35,35.71,-110.16,7654,2015-10-07 16:26:20:637,0
7.5082,-5.0374,-2.375,7.0081,-6.0869,-3.1634,0.5231,1.0599,0.7629,0.0746,-0.1065,0.5965,-18.5,33.75,33.25,70.46,38.37,-114.29,7754,2015-10-07 16:26:20:737,0
7.3933,-5.1715,-3.869,6.8045,-6.3172,-3.1563,0.5888,1.1457,-0.7127,-0.3451,0.1044,0.0575,-17.25,34.75,34.25,71.97,40.03,-114.58,7854,2015-10-07 16:26:20:837,0
6.8953,-5.8419,-3.2178,6.9107,-6.2011,-3.1558,-0.0154,0.3593,-0.0621,0.0682,0.1917,-0.0788,-15.5,33.25,35.25,73.17,39.22,-114.54,7954,2015-10-07 16:26:20:937,0
7.0294,-5.861,-3.5817,6.9563,-6.1914,-3.0736,0.0731,0.3304,-0.5081,0.0746,0.115,0.0149,-16.5,33.75,35,72.21,39.15,-113.84,8054,2015-10-07 16:26:21:037,0
7.2784,-5.9759,-3.5817,6.9499,-6.2226,-3.0246,0.3285,0.2467,-0.5571,0.1683,-0.0021,-0.0213,-16.75,33.5,35.25,73.44,39.39,-113.52,8155,2015-10-07 16:26:21:138,0
7.0485,-5.9185,-3.2178,6.9316,-6.2369,-3.0372,0.1056,0.3695,-0.3997,-0.0234,0.0213,-0.0597,-17,35.25,35,72.05,39.49,-113.66,8255,2015-10-07 16:26:21:238,0
7.106,-5.9185,-3.0837,6.8887,-6.2888,-3.0277,0.2429,0.3229,0.0146,0.0682,-0.0107,0.0426,-17,34.5,35,72.26,39.61,-113.74,8355,2015-10-07 16:26:21:338,0
7.1635,-5.9951,-2.7773,6.8979,-6.283,-3.019,0.2656,0.2879,0.2417,-0.0469,0.1577,-0.0746,-17.25,33,35,73.34,39.89,-113.73,8455,2015-10-07 16:26:21:438,0
7.3167,-6.0142,-2.1644,7.0382,-6.1876,-2.889,0.1252,0.25,0.4948,0.0426,0.0511,-0.0192,-16.75,34.25,35,74.22,39.84,-113.64,8554,2015-10-07 16:26:21:537,0
7.4891,-5.9376,-2.739,7.1573,-6.1175,-2.7422,0.1977,0.199,0.0224,0.0937,0.2386,-0.1321,-17.25,34,35.25,72.71,39.12,-112.32,8654,2015-10-07 16:26:21:637,0
7.1443,-5.9951,-2.5666,7.4069,-5.9085,-2.5293,-0.2186,-0.0494,0.0038,-0.3579,0.5518,-0.1747,-17.75,33.75,34.75,70.08,38.6,-110.96,8755,2015-10-07 16:26:21:738,0
7.4891,-5.7269,-2.2984,7.5241,-5.817,-2.3919,-0.0475,0.0761,0.0059,-0.3579,0.3388,0.0575,-20,32.75,34.75,69.78,37.05,-108.85,8854,2015-10-07 16:26:21:837,0
7.6423,-5.5162,-1.9728,7.6254,-5.7399,-2.2531,0.0169,0.2237,0.2803,-0.2855,0.4645,-0.0447,-20.5,32.25,34.25,71.8,36.38,-107.64,8954,2015-10-07 16:26:21:937,0
7.8147,-5.4396,-2.0686,7.736,-5.6585,-2.0752,0.0787,0.2189,0.0066,-0.3324,0.5348,-0.0469,-21.75,30.75,33.5,72.28,35.82,-106.46,9054,2015-10-07 16:26:22:037,0
7.9679,-5.3439,-1.5514,7.8476,-5.5839,-1.8456,0.0245,0.2208,0.1984,-0.2407,0.4027,-0.0277,-22.25,31.5,33.25,70.32,34.81,-103.85,9155,2015-10-07 16:26:22:138,0
8.0062,-5.3056,-1.3216,7.9648,-5.5169,-1.5151,-0.0161,0.2114,0.1935,0.2684,0.1917,-0.1534,-23.5,30,32.75,73.41,34.36,-102.04,9256,2015-10-07 16:26:22:239,0
7.8147,-5.4205,-1.2258,8.0326,-5.4862,-1.2448,-0.1796,0.0849,0.0381,0.1619,0.1321,-0.0277,-26,30,32,74.43,33.99,-99.37,9354,2015-10-07 16:26:22:337,0
7.7955,-5.4396,-0.7087,8.0424,-5.5228,-0.9945,-0.1319,0.1215,-0.0015,0.1364,0.2812,-0.081,-28,30,31,75.92,34.35,-97.71,9454,2015-10-07 16:26:22:437,0
7.8147,-5.4779,-0.5746,8.0278,-5.6028,-0.5772,-0.2323,0.1057,0.0026,0.4261,0.2045,0.1811,-28,30.25,29.75,74.87,34.43,-95.62,9554,2015-10-07 16:26:22:537,0
7.9871,-5.4588,-0.3448,7.9415,-5.7477,-0.2593,0.0361,0.2846,-0.0269,0.3388,0.0959,0.1555,-28.75,30.25,28.75,73.52,34.84,-94.11,9655,2015-10-07 16:26:22:638,0
7.3358,-5.6503,0.4022,7.84,-5.8909,0.0481,-0.4587,0.088,0.2621,0.6008,0.032,0.1811,-28.75,31.5,27.25,72.7,36.55,-90.23,9755,2015-10-07 16:26:22:738,0
8.0254,-6.3398,0.4214,7.5027,-6.301,0.4214,0.6927,0.0029,-0.0319,1.0013,-0.6754,0.6583,-28,33,26.25,71.98,38.91,-87.31,9855,2015-10-07 16:26:22:838,0
8.7149,-6.5505,0.5938,7.2231,-6.6045,0.6152,1.4918,0.054,-0.0214,0.9076,-0.4964,0.2365,-27.5,35.25,24.5,70.46,41.49,-86.06,9955,2015-10-07 16:26:22:938,0
8.0637,-6.7804,1.1684,7.2951,-6.5091,0.7637,0.802,-0.2971,0.4517,0.8352,-0.6882,-0.0085,-22.75,42.5,21.75,52.69,41.59,-84.02,10070,2015-10-07 16:26:23:053,0
7.7955,-6.8761,1.1492,7.4435,-6.3364,0.7844,0.4616,-0.3878,0.2383,0.7436,-0.6583,-0.1619,-21.75,44.5,20.75,52.69,41.59,-84.02,10154,2015-10-07 16:26:23:137,0
6.2249,-8.1211,1.1492,7.5773,-6.1682,0.8414,-1.5798,-1.8533,0.5444,0.7734,-0.5518,-0.245,-20.5,45.25,19.5,44.85,40.25,-83.98,10254,2015-10-07 16:26:23:237,0
5.6695,-8.1786,0.0192,7.4614,-6.327,0.6835,-1.4905,-1.8186,-0.7107,2.1241,-2.1987,0.3814,-20.5,46.25,18.5,41.06,39.51,-83.93,10355,2015-10-07 16:26:23:338,0
6.0525,-9.3087,1.2258,6.7789,-7.0626,0.5799,-0.6787,-2.1774,0.6559,3.068,-2.9487,1.2357,-19,49,15.75,37.35,44.12,-85.45,10455,2015-10-07 16:26:23:438,0
6.4165,-9.8833,2.49,5.8864,-7.7431,1.2512,0.5301,-2.1402,1.2388,3.4728,-2.2051,1.4338,-14,51.75,11.75,32.42,52.15,-78,10554,2015-10-07 16:26:23:537,0
7.355,-7.7381,2.5857,5.2907,-7.4879,3.48,2.0643,-0.2501,-0.8942,3.4664,-1.2336,0.6157,-7.75,54.25,3,21.98,53.43,-71.88,10656,2015-10-07 16:26:23:639,0
8.6191,-8.5808,3.869,5.4531,-6.8684,4.3885,3.1661,-1.7124,-0.5195,2.7867,-1.3571,0.326,-1.5,50.25,-17.5,335.49,44.46,-51.17,10763,2015-10-07 16:26:23:746,0
7.0677,-6.9145,2.5857,5.9558,-5.7712,5.2337,1.1118,-1.1432,-2.6479,4.2121,-1.6362,-0.897,-1.75,41.5,-29.25,316.82,36.05,-48.69,10856,2015-10-07 16:26:23:839,0
2.0877,-6.2441,-1.6472,8.0521,-1.9313,5.254,-5.9644,-4.3128,-6.9012,0.3132,0.6115,-1.4019,-6.25,27,-38.75,304.25,13.68,-56.87,10954,2015-10-07 16:26:23:937,0
2.3559,-8.7532,19.1919,7.3293,-3.6171,5.4192,-4.9734,-5.1361,13.7727,3.0765,-7.084,0.8288,-12,15.75,-42.25,279.81,17.78,-51.87,11054,2015-10-07 16:26:24:037,0
11.5496,-3.1412,5.1523,8.0571,-3.583,4.2913,3.4925,0.4418,0.861,0.7542,1.8472,0.6882,-12.75,19.5,-42,283.89,21.02,-64.71,11154,2015-10-07 16:26:24:137,0
6.6272,-2.4325,2.2218,7.9881,-3.0082,4.8282,-1.1434,0.0133,-0.9196,-0.1364,-0.1619,0.2173,-19.5,17,-40.5,281.23,17.86,-58.85,11255,2015-10-07 16:26:24:238,0
8.3318,-3.3327,4.8459,8.0703,-3.0929,4.6341,0.5353,-0.158,-0.3867,0.6583,-0.4027,0.1704,-21,12.75,-41.75,269.99,18.38,-60.14,11355,2015-10-07 16:26:24:338,0
8.2935,-2.9113,2.7964,8.1441,-2.8429,4.665,0.4176,0.1423,-1.7153,0.1917,-0.1001,-0.4623,-21.75,11,-41.75,267.62,16.85,-60.2,11455,2015-10-07 16:26:24:438,0
9.0214,-3.1412,3.8307,8.4029,-2.4461,4.4248,-0.3593,-0.5412,-0.3939,0.4474,-0.6754,-0.3153,-23.25,7,-41.25,264.97,16.01,-60.57,11555,2015-10-07 16:26:24:538,0
8.2744,-3.3902,4.6926,8.8006,-2.1573,3.7504,-0.5923,-1.2585,1.0859,0.6306,-1.0802,0.0724,-25,5,-40.75,260.08,13.8,-63.86,11654,2015-10-07 16:26:24:637,0
8.6574,-2.0303,0.8619,9.0586,-2.3001,2.9701,-0.4066,0.2636,-2.0963,-0.6903,0.6647,-0.0533,-27,3.25,-39.25,258.26,13.56,-71.85,11755,2015-10-07 16:26:24:738,0
3.4668,-6.1292,5.4588,8.5498,-3.0515,3.7094,-5.083,-3.0777,1.7494,-0.13,0.5923,1.3422,-30,3.5,-36,246.38,18.13,-66.55,11855,2015-10-07 16:26:24:838,0
6.4165,-8.8873,1.3599,7.369,-4.7656,4.3769,-0.5987,-3.9304,-2.0393,2.4757,-0.2471,2.5332,-29,8.25,-37.75,237.37,26.76,-61.46,11955,2015-10-07 16:26:24:938,0
8.102,-8.5042,0.3256,5.6305,-6.4933,4.7228,1.9083,-1.9067,-5.0071,-0.9651,1.2591,2.8869,-27,9.75,-40.25,227.5,31.73,-56.85,12055,2015-10-07 16:26:25:038,0
12.5265,-9.9982,-1.0918,5.0775,-8.1334,2.0584,6.9994,-1.7592,-3.9483,-4.9322,-0.7137,0.3899,-25.75,9.5,-40,211.53,41.46,-50.01,12155,2015-10-07 16:26:25:138,0
10.8601,-13.4075,-0.4788,6.5734,-6.8445,-2.4727,4.2867,-6.563,1.9939,-9.4809,4.2099,-3.0062,-21,16.75,-41.5,265.58,54.28,-96.36,12255,2015-10-07 16:26:25:238,0
6.5122,-11.7986,3.869,9.1123,-2.6734,-2.4474,-3.1521,-8.9496,6.3542,-4.8661,3.6027,-3.3236,-20.5,32.5,-31.25,309.23,15.82,-105.03,12355,2015-10-07 16:26:25:338,0
4.2138,-5.8993,1.6855,9.8065,0.0473,0.0086,-5.5912,-6.3051,2.78,0.4602,0.5241,-1.3081,-25.25,38.25,-9,327.35,8.86,-98.67,12455,2015-10-07 16:26:25:438,0
5.2864,-7.7381,-1.245,9.7926,-0.3923,-0.3492,-4.5636,-7.2308,-1.3364,1.9665,-0.5497,0.9225,-35.75,28.25,0.5,0.76,-0.05,-91,12555,2015-10-07 16:26:25:538,0
5.9185,-6.0334,-2.7773,9.3764,-2.8465,-0.3894,-2.5898,-3.3428,-2.1398,0.7989,0.5603,3.2192,-41.75,21.25,0,350.18,11.15,-92.95,12655,2015-10-07 16:26:25:638,0
12.4307,-9.4044,-2.3367,7.5262,-6.2869,-0.0368,4.4065,-3.2324,-2.1084,0.8543,-0.3814,3.6879,-41,23.75,0.25,253.96,30.53,-90.75,12755,2015-10-07 16:26:25:738,0
11.0325,-6.2058,0,5.8325,-7.8745,-0.379,5.5256,1.7454,-0.0807,-1.8024,1.306,1.3721,-33,36.75,-2.25,223.97,53.42,-93.72,12855,2015-10-07 16:26:25:838,0
8.2744,-6.1866,0.498,5.5252,-8.0666,-0.7569,2.8258,1.7267,1.274,-0.6136,0.7883,0.8522,-19.75,45.75,-3.75,327.06,55.34,-97.8,12955,2015-10-07 16:26:25:938,0
8.9447,-4.5969,-1.2641,5.2455,-8.2667,-0.562,3.9099,3.6124,-0.798,0.13,0.2109,0.3473,-11.25,50.5,0.75,359.07,57.5,-96.73,13055,2015-10-07 16:26:26:038,0
8.4276,-4.1946,-1.3024,6.0641,-7.6726,-0.7273,2.1337,3.3056,-0.3262,-0.1214,-0.2663,-1.0823,-7,52.25,3.25,5.05,53.64,-96.37,13154,2015-10-07 16:26:26:137,0
9.0405,-5.6886,-1.9728,6.9759,-6.8674,-0.5884,2.0646,1.1788,-1.3844,1.1526,-1.3422,-1.2911,-8.25,49.5,2.5,4.39,48.45,-96.18,13255,2015-10-07 16:26:26:238,0
10.3621,-7.1826,-1.2258,7.7974,-5.8495,-1.0749,1.5879,-0.0498,0.5194,0.3047,-0.9097,-1.1846,-12.5,48.75,0.75,2.15,41.92,-95.44,13355,2015-10-07 16:26:26:338,0
8.7724,-6.3973,0.1724,8.454,-4.7317,-1.52,-0.218,-0.8228,1.9606,0.3579,-1.0844,-1.877,-18.75,45.5,-0.25,353.86,28.85,-100.19,13455,2015-10-07 16:26:26:438,0
9.2129,-8.1786,0.3256,8.986,-3.2653,-2.1817,0.2843,-5.0282,2.3541,-0.0575,-0.7883,-1.5468,-23.5,41,0.75,352.6,22.99,-102.33,13555,2015-10-07 16:26:26:538,0
8.0637,-6.3398,0.7087,9.2358,-2.1538,-2.4963,-1.5169,-3.7838,3.4923,-0.4005,0.4495,-0.9119,-29.5,36,1.75,348.25,14.01,-105.51,13655,2015-10-07 16:26:26:638,0
6.8761,-5.5929,0.1724,9.4673,-1.7097,-1.9018,-2.5912,-3.8831,2.0742,0.2194,0.2578,-0.7052,-34,32.75,4,352.87,10.63,-102.19,13755,2015-10-07 16:26:26:738,0
6.5314,-5.7461,-1.0151,9.472,-1.7853,-1.8068,-2.8306,-4.0107,1.0623,0.1214,0.0597,-0.1385,-36.5,29,3.75,352.48,9.96,-101.01,13855,2015-10-07 16:26:26:838,0
6.4165,-5.8802,-1.6664,9.3315,-2.7272,-1.2866,-3.2449,-3.3313,-0.3431,-0.5177,0.9033,1.3635,-37.5,28.25,3.25,350.01,11.74,-100.05,13955,2015-10-07 16:26:26:938,0
7.7189,-6.9336,-1.3982,8.512,-4.8159,-0.7232,-0.6399,-2.2326,-0.675,-1.3848,1.2272,2.2924,-36.25,30,1,349.81,19.33,-96.76,14055,2015-10-07 16:26:27:038,0
11.7986,-9.7683,0.1724,6.8736,-6.887,-1.2218,5.921,-2.7472,1.3367,-1.4573,-0.2493,3.0126,-30.5,36.5,0.5,345.1,38.76,-97.06,14155,2015-10-07 16:26:27:138,0
10.1131,-4.8076,-0.4788,5.6924,-7.8144,-1.644,4.5038,3.0632,1.1815,-1.2996,1.5574,1.3231,-20.5,42.25,5.5,333.18,48.6,-103.08,14255,2015-10-07 16:26:27:238,0
7.6231,-4.5777,-1.0343,5.6333,-7.7586,-2.0593,2.1824,3.0416,1.2318,-2.3862,1.0418,0.1129,-12,46.25,10.5,20.94,52.29,-110.08,14355,2015-10-07 16:26:27:338,0
7.9104,-6.0717,-0.2873,6.3391,-6.914,-2.8606,1.2187,0.5898,2.7739,-2.7612,2.7803,-0.8863,-8.75,44.25,16,22.23,48.04,-114.14,14456,2015-10-07 16:26:27:439,0
6.0908,-5.2098,-0.0575,7.4912,-5.8659,-2.3756,-1.4003,0.6561,2.3182,0.5731,-0.081,-0.7691,-13.75,38.25,24.5,47.51,36.74,-107.6,14555,2015-10-07 16:26:27:538,0
7.3358,-5.1906,-3.8499,7.6405,-5.8136,-1.999,-0.1514,0.6229,-2.0424,0.8501,0.0959,0.1044,-18.5,33.75,27.25,54.2,35.83,-106.33,14655,2015-10-07 16:26:27:638,0
7.2975,-4.7884,-4.4053,7.6669,-5.9203,-1.5293,-0.6579,1.1572,-2.7342,0.1555,0.8139,0.1768,-21.25,36,25.75,58.33,37.14,-101.28,14755,2015-10-07 16:26:27:738,0
7.7955,-5.2481,-3.4285,7.5212,-6.1603,-1.2855,0.3454,1.0052,-2.1785,0.343,0.2024,0.6434,-22,36,23.75,59.26,37.98,-100.06,14855,2015-10-07 16:26:27:838,0
11.5305,-7.9296,-2.8156,7.0971,-6.6434,-1.2914,4.6183,-1.3681,-1.6171,0.5433,-0.3707,0.6647,-21.25,37,21,58.27,40.22,-99.35,14955,2015-10-07 16:26:27:938,0
7.8338,-3.9073,-1.2067,7.1598,-6.5616,-1.3613,0.399,2.4467,0.4162,-0.2386,-0.1491,-0.9225,-18.5,39,20,48.02,42,-100.77,15055,2015-10-07 16:26:28:038,0
9.0405,-6.4931,-1.3599,7.7365,-5.8064,-1.6133,1.3807,-0.6292,0.1577,0.0618,-0.7542,-1.0354,-16.75,41,19.5,41.52,39.59,-100.89,15155,2015-10-07 16:26:28:138,0
9.2129,-6.8187,0.4214,8.3511,-4.7018,-2.0789,0.8618,-2.1169,2.5003,-1.0418,0.2237,-1.404,-17.75,41,19.5,36.04,34.51,-102.79,15255,2015-10-07 16:26:28:238,0
8.0445,-6.8378,0.4214,8.9371,-3.6069,-1.8134,-1.05,-3.2998,2.2166,-0.1747,0.1811,-1.5532,-21.5,38.5,21.25,33.07,26.15,-103.48,15355,2015-10-07 16:26:28:338,0
7.5465,-6.3782,-0.7087,9.257,-2.7983,-1.6272,-1.8962,-3.6305,0.7686,-0.2216,0.3409,-0.9545,-25.25,32,22.75,35.77,21.58,-101.47,15454,2015-10-07 16:26:28:437,0
5.9759,-5.6312,-1.2258,9.4427,-2.3911,-1.1353,-3.4667,-3.24,-0.0905,-0.7691,0.7585,0.0043,-30.5,27.75,23.5,45.61,14.37,-98.53,15555,2015-10-07 16:26:28:538,0
5.7461,-5.4013,-1.6089,9.2771,-3.0423,-0.9218,-3.531,-2.359,-0.6871,-1.1931,0.5177,1.0248,-34.5,24.75,23.25,54.08,15.99,-95.83,15654,2015-10-07 16:26:28:637,0
8.0445,-7.106,-1.2067,8.4509,-4.8354,-1.1715,-0.4063,-2.2706,-0.0352,-1.7343,0.4197,2.5396,-36,22.75,23.5,77.21,25.12,-96.75,15754,2015-10-07 16:26:28:737,0
12.2775,-9.2129,0.5746,6.9065,-6.6759,-1.9757,5.371,-2.537,2.5503,-2.0751,-0.0085,3.4472,-34,24.25,24.75,83.5,29.54,-97.89,15854,2015-10-07 16:26:28:837,0
11.1282,-5.0566,0.7853,5.499,-7.7671,-2.3671,5.6293,2.7106,3.1524,-0.6008,1.1462,1.2016,-27,26.75,29,124.06,50.82,-112.88,15954,2015-10-07 16:26:28:937,0
8.5808,-4.0606,-1.2067,5.5227,-7.7932,-2.2217,3.0581,3.7326,1.015,-0.3728,0.1598,0.2812,-20,28.5,32.5,107.74,53.36,-111.79,16054,2015-10-07 16:26:29:037,0
8.6574,-5.2098,-0.9194,6.4671,-6.9657,-2.4137,1.6111,1.388,1.4396,-1.2613,1.7641,-1.4381,-18.5,29.5,33.25,94.24,48.3,-112.1,16154,2015-10-07 16:26:29:137,0
5.4971,-6.2441,-1.5323,7.8944,-5.5488,-1.7491,-2.5996,-0.8339,0.0281,-0.0746,0.865,-1.3422,-20.75,25.75,34.25,88.23,42.9,-108.81,16255,2015-10-07 16:26:29:238,0
7.2784,-6.0717,-2.2601,8.166,-5.2822,-1.2591,-0.8827,-0.656,-1.1442,1.0567,-0.115,0.0405,-29,19,33.25,94.72,32.45,-99.69,16355,2015-10-07 16:26:29:338,0
7.5082,-5.2672,-3.7924,8.0863,-5.4908,-0.7962,-0.7158,0.3116,-3.0719,0.865,0.0959,0.3878,-33,18,31,100.68,33.46,-96.79,16455,2015-10-07 16:26:29:438,0
7.6806,-5.2289,-2.3176,7.6572,-6.1059,-0.5051,-0.329,0.8142,-2.0431,0.8288,-0.2855,1.0056,-34,20.5,29,98.49,35.67,-94.18,16555,2015-10-07 16:26:29:538,0
10.8793,-7.7381,-1.9154,7.034,-6.8137,-0.5163,3.117,-0.3886,-1.3726,1.1505,-1.3806,1.1313,-33.5,24.25,26.5,102.5,42.27,-93.56,16655,2015-10-07 16:26:29:638,0
10.0173,-4.7309,-0.7853,6.5706,-7.2497,-0.6631,3.4468,2.5188,-0.1222,1.2741,-1.7279,0.3409,-30.75,28.75,26.25,100.96,46.94,-95.19,16755,2015-10-07 16:26:29:738,0
8.983,-5.3439,-0.2298,7.1603,-6.6135,-1.0778,1.8227,1.2696,0.8479,0.0703,-1.7279,-1.8876,-24,36.75,25.5,88.07,47.04,-96.25,16854,2015-10-07 16:26:29:837,0
9.3087,-7.6806,0.5363,8.4101,-4.6088,-2.0493,0.8985,-3.0718,2.5856,-0.1129,-0.7137,-1.8472,-22,38.75,25.75,50.57,34.31,-102.61,16955,2015-10-07 16:26:29:938,0
10.2663,-7.2209,0.0575,8.8453,-3.477,-2.417,1.5527,-3.6253,2.5218,-0.2578,-0.7627,-1.8067,-25.25,36.25,27.75,45.02,23.3,-104.79,17055,2015-10-07 16:26:30:038,0
8.1786,-7.0677,0.3256,9.3944,-2.0458,-1.9313,-1.327,-5.3422,2.0097,-0.9843,1.2464,-2.0048,-30,31.25,30,45.1,20.77,-105.28,17154,2015-10-07 16:26:30:137,0
5.6312,-5.9951,-0.0192,9.759,-0.6693,-0.6964,-4.3022,-5.2246,0.4193,-0.2471,1.0056,-1.0567,-35.25,22.75,31.5,51.74,9.13,-99.29,17254,2015-10-07 16:26:30:237,0
5.2864,-5.2289,-1.3408,9.7637,-0.9019,0.1623,-4.3624,-4.2121,-1.9436,0.2088,0.4623,0.669,-42.25,13,28,68.11,2.74,-91,17355,2015-10-07 16:26:30:338,0
7.6231,-6.608,-0.4597,9.4295,-2.6813,0.2572,-1.7166,-3.6279,-0.7037,-0.6754,-0.0383,2.3777,-46.25,9.25,25.25,77.88,5.28,-89.05,17455,2015-10-07 16:26:30:438,0
9.8258,-7.4891,-0.5746,8.3553,-5.1337,-0.0669,1.7386,-2.4703,-0.6226,-0.3707,-0.5007,2.9487,-46.5,14.25,24.25,107.56,26.31,-89.44,17555,2015-10-07 16:26:30:538,0
12.6988,-8.5617,-1.5897,6.4482,-7.3232,-0.9806,5.1734,-1.0283,-0.7359,-1.5105,0.3089,2.5502,-41.75,22,24.75,127.73,45.2,-95.82,17654,2015-10-07 16:26:30:637,0
11.6454,-8.4851,-0.1724,5.5973,-7.709,-2.3264,6.2789,-1.0897,1.6451,-4.1013,1.8024,1.8344,-32.5,32,29.25,120.99,51.7,-107.3,17755,2015-10-07 16:26:30:738,0
7.6231,-5.4205,1.3599,5.8997,-6.8761,-3.7528,1.5645,1.2671,5.0547,-3.5985,2.2711,0.0788,-26.75,32.25,35,118.81,50.9,-117.21,17855,2015-10-07 16:26:30:838,0
7.3358,-6.3782,0.6895,7.1089,-5.3077,-4.1787,-0.1562,-0.9938,4.6958,-2.5034,1.877,-0.6285,-30.25,21,37.5,122.78,36.86,-121.96,17955,2015-10-07 16:26:30:938,0
6.0334,-5.5354,0.2107,8.0215,-4.4811,-3.4272,-2.0647,-0.9585,3.2165,-0.7286,1.3465,-0.3004,-36.25,4.25,35.5,137.35,32.77,-120.45,18055,2015-10-07 16:26:31:038,0
6.7421,-5.2672,-2.4708,8.2113,-4.608,-2.7408,-1.7723,-0.7922,1.2317,0.3111,0.5752,0.5241,-42.25,-5.25,28.25,148.51,27.19,-113.13,18155,2015-10-07 16:26:31:138,0
7.6231,-5.3822,-4.2138,7.8191,-5.5342,-2.0986,-0.0236,0.0563,-1.7513,-0.6924,0.9609,1.6916,-44.5,-9.75,23.75,159.84,28.03,-108.46,18255,2015-10-07 16:26:31:238,0
8.9256,-5.6312,-3.4093,7.1135,-6.4751,-1.9085,1.7738,0.8822,-1.6732,-0.2706,0.5497,1.6043,-48,-4.25,19.75,168.94,39.2,-104.91,18355,2015-10-07 16:26:31:338,0
9.1171,-5.0757,-2.7773,6.4436,-7.1395,-1.9179,2.7885,1.9489,-0.7253,-0.3899,0.4155,0.7926,-48.75,2.75,16,177.3,45.02,-106.28,18455,2015-10-07 16:26:31:438,0
8.4276,-4.7118,-2.5666,6.4247,-7.108,-2.0904,2.0029,2.3962,-0.4762,-1.0589,0.8309,0.1683,-49,8.75,14.25,182.4,47.41,-107.42,18555,2015-10-07 16:26:31:538,0
7.3933,-5.0949,-1.4748,7.0856,-6.3823,-2.2872,0.1736,1.3066,0.7933,-0.9587,1.1824,-0.7478,-48.5,11,12.25,188.74,42.43,-108.52,18655,2015-10-07 16:26:31:638,0
6.5505,-4.8076,-2.2027,7.7116,-5.745,-1.9229,-1.161,0.88,-0.184,-0.1896,0.8948,-0.5454,-49.5,9.5,8.75,190.71,36.84,-105.15,18754,2015-10-07 16:26:31:737,0
7.5657,-4.9991,-2.375,7.9419,-5.5551,-1.4955,-0.7593,0.7667,-0.9179,0.2535,0.5944,-0.1023,-50.5,5.75,5,190.5,34.5,-100.66,18854,2015-10-07 16:26:31:837,0
9.0788,-5.7844,-1.494,7.8564,-5.7803,-1.017,1.1764,-0.0843,-0.3846,0.7606,0.0959,0.5284,-50.75,5,1.25,194.21,35.31,-98.3,18955,2015-10-07 16:26:31:938,0
9.5577,-6.1292,-0.7853,8.0152,-5.5487,-1.067,1.7531,-0.6953,0.1284,-0.5198,0.2791,-0.735,-50.5,5.75,-0.75,193.46,36.22,-96.95,19055,2015-10-07 16:26:32:038,0
7.4316,-6.0525,0.4788,8.4411,-4.9039,-0.9329,-0.8946,-1.0529,1.3734,-0.4495,0.6221,-0.8906,-50.5,2.75,0,196.01,33.19,-97.57,19155,2015-10-07 16:26:32:138,0
8.2552,-5.9376,-0.2873,8.702,-4.3973,-1.0537,-0.5042,-1.4063,0.7855,0.0341,-0.3089,-0.3856,-50.5,-1.5,-2,193.78,28.83,-95.62,19255,2015-10-07 16:26:32:238,0
8.1594,-5.7078,-0.0766,8.7917,-4.2099,-1.074,-0.5748,-1.4596,0.9017,-0.6456,0.3132,-0.2621,-50.75,-3.5,-0.25,196.25,26.64,-96.9,19355,2015-10-07 16:26:32:338,0
7.7189,-6.0525,0.249,8.901,-4.0099,-0.9292,-1.1629,-2.0235,1.0633,-0.6583,0.294,-0.1257,-49.5,-6.75,0.25,190.94,24.14,-95.96,19455,2015-10-07 16:26:32:438,0
7.2975,-5.9185,0.0192,8.8425,-4.1839,-0.6899,-1.5449,-1.7345,0.7091,-0.6605,0.4666,0.3856,-49,-8,-1.5,189.65,24.19,-95.43,19555,2015-10-07 16:26:32:538,0
7.8147,-6.0142,-0.0958,8.3423,-5.1238,-0.5691,-0.5276,-0.8904,0.4733,-0.6626,0.2919,1.0269,-48.75,-7.25,-4.25,193.5,29.72,-93.81,19655,2015-10-07 16:26:32:638,0
8.7915,-6.2249,-0.1915,7.5857,-6.1856,-0.6044,1.2058,-0.0393,0.4128,-0.669,0.3217,1.6107,-49.5,-4,-5.5,195.05,35.91,-94.14,19755,2015-10-07 16:26:32:738,0
11.3581,-7.5657,-0.3448,6.8291,-6.9853,-0.8603,4.529,-0.5804,0.5156,-1.355,0.7521,1.3508,-47.75,4.5,-6.5,198.05,41.53,-95.21,19855,2015-10-07 16:26:32:838,0
8.5234,-3.8882,0.3256,6.3844,-7.383,-0.9487,2.1389,3.4949,1.2743,-0.7734,1.2123,0.8203,-46,11.75,-7.25,204.64,46.92,-98.23,19955,2015-10-07 16:26:32:938,0
8.849,-4.3287,-3.1029,6.7292,-7.0895,-0.7922,2.1198,2.7607,-2.3107,-0.3984,-0.1321,-1.1697,-42,19,-9.25,210.99,49.29,-96.84,20055,2015-10-07 16:26:33:038,0
8.7149,-7.0102,-2.624,7.6091,-6.058,-1.2545,1.1058,-0.9523,-1.3695,-2.3223,1.2932,-1.9047,-42,18.25,-11.25,239.69,38.15,-99.36,20154,2015-10-07 16:26:33:137,0
5.4588,-6.8187,-1.3599,8.7744,-4.2341,-1.1192,-3.3156,-2.5846,-0.2407,-1.0994,0.7542,-1.8557,-43.25,15.5,-13.75,260.54,25.58,-97.27,20255,2015-10-07 16:26:33:238,0
6.4165,-6.4165,-1.4748,9.0819,-3.5455,-1.0573,-3.4158,-3.0043,-0.3748,-0.1491,0.0064,0.3899,-44,8.25,-16.5,249.91,21.2,-96.64,20355,2015-10-07 16:26:33:338,0
7.2209,-6.11,-1.5514,8.588,-4.639,-0.947,-1.2138,-1.4136,-0.7002,0.3089,0.0767,1.3103,-43.5,6.25,-18.5,243.4,23.94,-96.84,20455,2015-10-07 16:26:33:438,0
8.0637,-5.4205,-1.9345,7.8189,-5.8625,-0.8163,0.2448,0.4421,-1.1182,0.9417,-0.1065,1.9814,-42.25,9.5,-19.25,238.68,31.28,-96.16,20555,2015-10-07 16:26:33:538,0
9.5385,-5.3247,-2.3176,6.628,-7.2125,-0.4691,3.1978,1.907,-1.8868,0.9715,-0.2194,2.0368,-42,12.25,-19.25,229,44.28,-94.8,20655,2015-10-07 16:26:33:638,0
11.0708,-4.8842,-2.6432,6.1371,-7.6459,-0.2179,5.1222,2.5639,-2.1369,1.0653,-0.5689,0.6605,-36,21,-20.75,237.25,51.23,-92.03,20755,2015-10-07 16:26:33:738,0
8.5042,-5.1906,-0.996,6.9884,-6.8606,-0.5146,1.7499,2.1564,-1.0599,-0.6029,0.1044,-1.4914,-34.75,22,-21.25,252.04,44.39,-94.21,20855,2015-10-07 16:26:33:838,0
8.102,-6.857,0.8428,8.034,-5.5137,-1.1066,0.068,-1.3433,1.9494,-0.7798,-0.5667,-1.7193,-35.5,20.75,-19.5,264.3,37.63,-96.65,20955,2015-10-07 16:26:33:938,0
9.3087,-6.5888,0.6704,8.6316,-4.358,-1.635,0.677,-2.2308,2.3054,-0.3494,-0.3281,-1.5872,-37.75,16.25,-17.5,269.69,28.71,-99.98,21054,2015-10-07 16:26:34:037,0
9.0214,-7.7764,0.3639,9.1688,-3.0961,-1.5866,-0.9902,-3.0905,2.8316,0.6498,-0.6285,-1.6682,-41,11.75,-13.75,266.44,23.15,-100.58,21155,2015-10-07 16:26:34:138,0
8.1977,-6.6655,0.0383,9.3695,-2.3094,-1.7464,-1.0568,-4.4518,1.7655,0.1193,0.1491,-0.9864,-43.75,5.75,-12.25,266.38,14.89,-100.59,21255,2015-10-07 16:26:34:238,0
6.4356,-5.0949,-0.3065,9.5414,-1.9374,-1.1737,-3.233,-3.0967,0.8869,0.1342,0.7095,-0.4666,-45.5,-1.25,-10.5,251.31,11.91,-98.44,21355,2015-10-07 16:26:34:338,0
6.1675,-5.3056,-2.241,9.5717,-2.0264,-0.6686,-3.7681,-3.0685,-1.151,-0.0256,-0.228,0.3814,-45,-4,-11.75,229.25,11.93,-94,21455,2015-10-07 16:26:34:438,0
9.2895,-8.0254,-3.3327,8.9719,-3.6984,-1.4132,0.6623,-4.6143,-2.226,-0.6179,-0.375,2.0624,-44.75,-4.25,-12.5,223.65,22.16,-98.95,21555,2015-10-07 16:26:34:538,0
8.6383,-3.8882,-1.8004,7.5444,-6.0601,-1.5898,1.8408,2.44,0.0958,-0.6711,0.4495,3.0786,-45.5,0,-12.5,219.3,38.17,-101.9,21655,2015-10-07 16:26:34:638,0
11.1857,-4.7118,-1.6664,6.6943,-6.9072,-1.9099,4.4914,2.1954,0.2436,-0.5795,-0.2429,0.6349,-42,14.25,-12.5,226.01,42,-102.73,21755,2015-10-07 16:26:34:738,0
7.7764,-4.5011,-0.249,7.0498,-6.557,-1.8645,0.7266,2.0559,1.6155,-0.8053,1.0184,-0.4474,-38.5,21.75,-10.75,252.74,41.96,-104.81,21855,2015-10-07 16:26:34:838,0
7.5274,-5.114,-0.6129,7.494,-6.1145,-1.6196,0.1627,0.92,1.0211,-0.1704,0.0959,-0.3473,-37.5,22.75,-11.25,260.47,38.57,-102.2,21955,2015-10-07 16:26:34:938,0
8.4659,-5.0374,-1.8771,7.746,-5.9145,-1.0902,0.6344,1.0424,-0.5856,1.289,-0.3856,-0.3835,-37.75,22.75,-12.5,258.75,37.57,-98.9,22055,2015-10-07 16:26:35:038,0
8.7149,-5.8227,-2.5091,7.9977,-5.5904,-0.9771,0.5892,0.0428,-1.6934,1.338,-0.7222,-0.5071,-38.25,23.25,-13.75,258.75,37.57,-98.9,22155,2015-10-07 16:26:35:138,0
8.1403,-5.7078,-1.3982,8.1296,-5.3811,-1.0605,-0.4024,-0.0972,-0.0162,1.0525,-0.7222,-0.3324,-41.75,19,-14,252.81,33.28,-97.43,22255,2015-10-07 16:26:35:238,0
8.0637,-5.8035,-0.3639,8.1244,-5.3659,-1.1713,-0.0607,-0.4376,0.8074,1.0738,-0.9033,-0.0618,-42.75,15.5,-13.25,250.48,32.88,-97.63,22354,2015-10-07 16:26:35:337,0
8.1786,-4.367,-0.2107,7.9276,-5.6459,-1.2032,0.2402,1.4432,1.0909,1.3081,-1.0951,0.0618,-43.5,15.25,-11.5,237.83,34.61,-98.57,22454,2015-10-07 16:26:35:437,0
7.6231,-5.3822,0.9577,8.2314,-5.1505,-1.3736,-0.5263,-0.0477,2.1977,1.1143,-1.0248,-1.0802,-44.25,14,-9.25,232.63,34.33,-99.15,22555,2015-10-07 16:26:35:538,0
9.1363,-7.2018,0.0192,8.3786,-4.8928,-1.425,0.7577,-2.309,1.4441,1.6554,-1.8472,-0.3132,-45,11.75,-6,228.68,30.21,-99.16,22655,2015-10-07 16:26:35:638,0
9.8067,-5.3247,-0.4214,8.3634,-4.7902,-1.8104,1.4432,-0.5345,1.389,0.228,-0.2471,-0.9374,-46.5,6.75,-1.25,216.21,29.93,-99.65,22754,2015-10-07 16:26:35:737,0
8.8681,-6.7804,0.7087,8.7922,-4.0128,-1.6625,0.0759,-2.7675,2.3712,-0.0043,-0.2088,-1.2783,-47,5.75,4.25,198.69,26.58,-101.29,22854,2015-10-07 16:26:35:837,0
7.2401,-6.0908,0.2873,9.1416,-3.2647,-1.3938,-1.9016,-2.8262,1.6811,0.4517,0.2109,-0.8522,-47,0,6.75,189.76,22.48,-100.27,22955,2015-10-07 16:26:35:938,0
7.2592,-5.9951,-0.4597,9.2728,-3.078,-0.8435,-2.0136,-2.9171,0.3839,-0.0533,0.5369,-0.0895,-46.75,-6.5,6.5,176.14,18.31,-96.8,23055,2015-10-07 16:26:36:038,0
8.983,-8.1977,-2.5857,9.2439,-3.177,-0.7916,-0.2609,-5.0207,-1.7941,-1.3231,0.3451,0.3792,-46.5,-8.75,6.5,171.47,18.61,-94.34,23155,2015-10-07 16:26:36:138,0
5.7844,-3.9073,-2.7198,8.8235,-4.1719,-0.9548,-3.0391,0.2645,-1.765,-1.1185,0.6221,2.6909,-46.25,-11.5,5.5,175.38,18.9,-94.89,23255,2015-10-07 16:26:36:238,0
11.0516,-5.0374,-2.241,7.217,-6.5657,-0.9887,2.2799,1.2524,-0.5937,1.2378,-0.9417,2.8443,-46.5,-12.75,3.5,181.89,25.18,-96.18,23355,2015-10-07 16:26:36:338,0
11.224,-3.4668,-2.8539,6.5329,-7.2392,-1.0422,4.6911,3.7724,-1.8117,-0.7073,0.3835,-0.6264,-46.75,-5.5,0.25,186.26,42.03,-97.8,23455,2015-10-07 16:26:36:438,0
7.6231,-5.8035,0.4214,7.4989,-6.2201,-1.1165,0.5235,0.7955,1.0502,-0.5454,0.8032,-0.9332,-46,7.25,1,193.38,46.01,-99.51,23554,2015-10-07 16:26:36:537,0
7.1251,-5.5354,0.0766,7.879,-5.802,-0.6547,-0.4927,0.255,0.284,1.1121,-0.2024,-0.3899,-44.25,11.5,2,188.87,36.87,-96.01,23654,2015-10-07 16:26:36:637,0
7.9487,-5.5737,-2.0686,8.0975,-5.5246,-0.2833,-0.1377,0.0018,-1.5848,1.6128,-0.6562,-0.5198,-45.75,7.5,1.75,180.48,35.13,-92.7,23754,2015-10-07 16:26:36:737,0
7.4124,-5.4971,-1.9345,8.2405,-5.3101,-0.2613,-0.8314,-0.1929,-1.6617,0.5838,-0.3537,-0.147,-46.5,3.75,0,183.72,32.99,-91.76,23854,2015-10-07 16:26:36:837,0
8.7915,-6.11,-1.1684,8.1086,-5.4973,-0.4489,0.7107,-0.5726,-0.7113,0.4943,-0.2407,0.4027,-47.25,2.25,1.5,180.9,33.14,-92.89,23954,2015-10-07 16:26:36:937,0
7.8913,-4.3862,-0.3831,7.9768,-5.6825,-0.5006,-0.0684,1.3207,0.112,0.3601,-0.4091,-0.1427,-46.5,1,3.5,177.2,35.3,-93.4,24055,2015-10-07 16:26:37:038,0
9.596,-6.6846,0.6512,8.1579,-5.3902,-0.7521,1.1597,-1.2315,1.2579,1.1207,-1.3593,-0.6562,-45.75,1.5,5.25,176.74,34.14,-94.49,24155,2015-10-07 16:26:37:138,0
9.5768,-5.5929,0.1724,8.3892,-4.949,-1.14,1.0001,-0.8148,1.3233,0.6413,-0.8352,-1.2272,-44,2,8.25,173.24,31.49,-97.02,24254,2015-10-07 16:26:37:237,0
8.351,-6.3973,0.0575,9.0613,-3.5626,-1.1711,-0.8096,-2.7279,1.2924,-0.4368,0.3111,-1.5702,-41.75,0,13.5,166.43,28.52,-98.05,24354,2015-10-07 16:26:37:337,0
6.3207,-5.6312,-0.1341,9.4044,-2.6821,-0.7309,-2.8347,-3.1789,0.8458,-0.3494,0.5582,-1.1398,-41,-4.75,16.25,145.38,17.31,-95.5,24455,2015-10-07 16:26:37:438,0
6.1292,-6.2249,-1.0726,9.4688,-2.4902,-0.557,-3.2056,-3.524,-0.4581,-0.5326,0.1981,0.1747,-39.25,-10.75,16,145.84,15.87,-94.44,24555,2015-10-07 16:26:37:538,0
9.4427,-9.7875,-2.873,8.8513,-4.1912,-0.5091,0.3233,-4.5045,-1.6361,-0.9673,0.7308,2.1263,-38.5,-14.75,15,155.39,21.02,-93.3,24655,2015-10-07 16:26:37:638,0
7.6231,-4.8842,-1.9537,7.7608,-5.9782,-0.4495,-0.6165,2.2816,-1.1402,-1.3401,1.11,2.2008,-39.5,-14,13.75,160.9,33.75,-93.38,24754,2015-10-07 16:26:37:737,0
9.6151,-6.3015,-0.2298,6.8687,-6.9289,-0.991,2.7464,0.6273,0.7612,-1.078,-0.8203,1.127,-42.25,-7,9.75,170.56,43.27,-95.78,24855,2015-10-07 16:26:37:838,0
8.1594,-4.7501,0.1915,6.2203,-7.3801,-1.7357,1.9391,2.63,1.9272,-0.7904,0.5902,0.7159,-42.75,-0.75,7.75,180.86,46.17,-101.43,24954,2015-10-07 16:26:37:937,0
8.4276,-4.6926,-0.3256,6.2197,-7.3977,-1.6614,2.2079,2.705,1.3358,-0.3132,0.2684,0.1108,-41.25,3.25,8.5,186.51,48.81,-105.59,25055,2015-10-07 16:26:38:038,0
8.5808,-4.8459,-1.2067,6.6229,-7.1323,-1.199,1.9579,2.2865,-0.0077,0.0895,0.7457,-0.1321,-41.25,5,7.75,182.38,47.77,-102.61,25154,2015-10-07 16:26:38:137,0
10.0173,-6.3782,-2.6815,7.1501,-6.675,-0.7007,2.8672,0.2968,-1.9808,0.5625,0.1406,-0.6093,-41.75,6.25,5,180.3,44.58,-96.97,25254,2015-10-07 16:26:38:237,0
9.8067,-5.0949,-1.8196,7.608,-6.1507,-0.6766,3.4976,-0.082,-2.4741,-0.1001,0.2045,-0.6413,-41,5.5,2.5,181.46,40.24,-94.96,25354,2015-10-07 16:26:38:337,0
9.3853,-5.8993,-0.0766,8.2897,-5.1764,-0.8103,1.0589,-0.1702,0.9399,1.0994,-1.2336,-1.6085,-41,4.25,1.5,184.71,35.13,-95.13,25455,2015-10-07 16:26:38:438,0
9.0405,-6.1483,-0.1724,8.7567,-4.1982,-1.3657,0.3192,-1.8549,1.1224,1.029,-1.4317,-1.3401,-40.5,0,2.25,190.38,27.27,-97.66,25554,2015-10-07 16:26:38:537,0
8.7724,-6.0525,-0.3831,9.0344,-3.3258,-1.8678,-0.2621,-2.7268,1.4847,0.3451,-0.5859,-1.3486,-39.5,-5.25,7.25,183.28,19.82,-101.68,25654,2015-10-07 16:26:38:637,0
7.0868,-5.4588,-0.1341,9.2554,-2.5381,-2.0165,-2.1685,-2.9207,1.8824,-0.3174,0.3579,-0.946,-38.5,-9.25,11.75,169.15,15,-102.29,25755,2015-10-07 16:26:38:738,0
6.6655,-6.2632,-0.4788,9.4761,-1.9892,-1.555,-2.8106,-4.274,1.0761,-0.4794,0.5284,-0.0085,-35.5,-13,13.5,164.82,13.09,-101.6,25855,2015-10-07 16:26:38:838,0
8.7532,-8.5234,-2.2027,9.3015,-2.8781,-1.1701,-1.0143,-4.7095,-0.923,-0.5582,0.5198,1.6171,-35.75,-17.75,11.75,162.31,12.59,-98.42,25955,2015-10-07 16:26:38:938,0
6.9145,-4.3096,-1.5514,8.5316,-4.7402,-0.9549,-1.3773,0.6558,-0.3843,-1.0738,1.0738,2.6589,-36.75,-15.75,9.25,167.48,20.41,-96.87,26055,2015-10-07 16:26:39:038,0
10.3238,-6.0142,-1.0534,7.2261,-6.5773,-0.8322,3.8027,1.3529,-0.7022,0.6264,-0.8203,2.4458,-39,-10.75,6,177.52,42.12,-96.57,26155,2015-10-07 16:26:39:138,0
10.4387,-5.3439,0.6129,6.41,-7.3258,-1.1895,4.0287,1.9819,1.8024,-1.1121,1.0567,0.277,-39,0.25,4.5,180.86,46.45,-98.2,26255,2015-10-07 16:26:39:238,0
8.5808,-4.5203,0.3256,6.8668,-6.9909,-0.3803,1.714,2.3557,0.5718,-0.4538,1.3678,-0.0383,-38.25,6,4.5,181.91,47.13,-98.58,26355,2015-10-07 16:26:39:338,0
8.8873,-3.7733,-0.0383,7.0317,-6.8347,0.1132,1.9322,3.0614,0.0208,0.1491,0.5007,0.0788,-39.25,6.75,0,178.01,45.01,-91.74,26455,2015-10-07 16:26:39:438,0
9.6917,-4.4245,-0.2107,7.4232,-6.3901,0.4825,2.0387,2.1763,-0.789,1.1824,-0.5156,-0.5262,-39,7.75,-5.25,188.42,42.22,-87.11,26555,2015-10-07 16:26:39:538,0
10.8984,-6.11,0.0766,7.8629,-5.8357,0.5393,2.8368,-0.0489,-0.2525,0.8607,-0.5433,-0.5689,-39.5,8.5,-7,194.91,36.52,-86.08,26654,2015-10-07 16:26:39:637,0
9.2129,-5.2289,1.743,8.3935,-5.0421,0.5441,0.7827,-1.0215,1.5363,0.5198,-0.5859,-1.7918,-40.25,5.25,-6,193.48,35.11,-86,26755,2015-10-07 16:26:39:738,0
8.3318,-5.7844,2.739,9.0757,-3.6791,0.5163,-0.9243,-2.2217,2.2426,0.8266,-0.4623,-1.3742,-42.75,1.75,-4.5,186.18,22.03,-86.74,26855,2015-10-07 16:26:39:838,0
8.2744,-5.5737,1.9345,9.4035,-2.7172,0.6016,-1.1291,-2.8565,1.3329,0.6136,0.1981,-1.2591,-43,-6.25,-3,180.8,16.09,-86.34,26955,2015-10-07 16:26:39:938,0
7.7764,-4.5394,2.0111,9.4989,-2.1443,1.1587,-1.5885,-2.759,1.8101,0.3047,0.2024,-0.8586,-42.75,-9.5,-1,169.77,13.48,-84.16,27055,2015-10-07 16:26:40:038,0
8.9064,-4.3287,1.8196,9.558,-1.5469,1.5561,-1.1879,-2.9351,0.4168,-0.1704,0.3409,-0.7989,-41.5,-14.25,-1.25,168.69,12.63,-83.05,27155,2015-10-07 16:26:40:138,0
10.7643,-4.3096,1.0151,9.4008,-1.2651,2.4888,1.3635,-3.0445,-1.4737,-0.8373,1.0418,-0.4325,-39.25,-20.5,-4.25,167.37,7.24,-78.05,27255,2015-10-07 16:26:40:238,0
9.9599,0.5938,2.0686,9.0568,-1.7983,3.3033,0.8799,2.8144,-0.8081,-1.6128,1.1313,-0.0533,-36.25,-25.5,-9.5,170.53,8.52,-73.56,27355,2015-10-07 16:26:40:338,0
7.8338,0.9577,3.8307,8.8272,-1.5629,3.976,-0.9934,2.5206,-0.1453,-0.2706,-0.0618,-0.6264,-35.25,-26.5,-13.25,177.01,10.18,-67.04,27455,2015-10-07 16:26:40:438,0
10.6686,0.9194,4.0031,8.9776,-0.7304,3.8781,1.691,1.6498,0.125,-0.1257,0.1065,-1.4211,-33.25,-26.25,-20.75,191.24,6.23,-66.31,27555,2015-10-07 16:26:40:538,0
7.9487,0.1532,4.5011,8.8808,0.2981,4.1489,-0.932,-0.1449,0.3522,0.2067,0.6647,-0.931,-33,-25,-21.75,194.95,-0.12,-65.96,27655,2015-10-07 16:26:40:638,0
8.3127,2.0877,4.4819,8.6817,1.537,4.2937,-0.5798,0.1677,0.5139,1.3976,-0.4623,-0.9907,-30.75,-26.25,-22.25,194.62,-5.9,-63.32,27755,2015-10-07 16:26:40:738,0
8.1211,3.6775,4.1946,8.6323,3.1571,3.4185,-0.5449,0.2045,1.7515,2.1263,-0.8139,-0.8181,-27.75,-30.75,-21.75,202.76,-15.24,-66.06,27855,2015-10-07 16:26:40:838,0
8.5617,5.4588,3.2944,8.2519,4.7527,2.3427,-0.1577,0.9222,0.8292,1.2868,0.0043,-1.3188,-24.75,-36,-16.5,203.7,-18.78,-68.4,27954,2015-10-07 16:26:40:937,0
7.604,6.0142,0.7278,7.2838,6.5065,0.8845,-0.1424,-0.2871,-0.2848,1.6725,-0.6711,-1.975,-22.75,-39.75,-8.5,193.7,-28.99,-74.15,28055,2015-10-07 16:26:41:038,0
7.2592,6.4165,-1.0343,6.1672,7.5725,-0.8913,0.9609,-1.069,-0.3496,2.1007,-0.5646,-1.8642,-16.75,-43.25,-0.25,182.07,-48.01,-91.97,28155,2015-10-07 16:26:41:138,0
5.2098,4.7693,-2.2218,4.7576,8.0388,-2.9856,0.1279,-3.226,0.3121,2.1774,-0.9673,-1.8685,-9.25,-44.25,7.75,166.01,-53.95,-111.34,28254,2015-10-07 16:26:41:237,0
4.8267,4.7309,-5.0374,3.6624,7.3922,-5.3022,1.2395,-2.5379,0.4821,2.7484,-0.1811,-1.012,-2,-43.5,16.5,155.54,-55.06,-122.11,28354,2015-10-07 16:26:41:337,0
3.2561,3.3902,-7.3358,3.0368,6.0559,-7.0904,0.3072,-2.2859,0.0976,2.6717,-0.1342,-0.8309,6,-40.5,26.5,136.31,-48.92,-145.37,28454,2015-10-07 16:26:41:437,0
2.8922,2.9497,-7.7955,3.0056,4.3756,-8.2457,-0.1134,-1.4259,0.4502,1.2208,0.1513,-0.081,13.25,-31,35,118.01,-29.68,-160.33,28554,2015-10-07 16:26:41:537,0
4.0606,2.739,-11.5305,3.1953,3.7605,-8.4746,-1.7348,-0.5624,-0.9905,0.0575,-0.3814,0.7286,16,-19,38.75,106.13,-26.5,-159.97,28655,2015-10-07 16:26:41:638,0
2.4517,2.2984,-8.4084,3.4006,3.698,-8.4221,-0.9402,-1.3927,0.0201,-0.4559,-0.3047,0.5582,17,-13.25,39.5,94.29,-22.55,-159.34,28754,2015-10-07 16:26:41:737,0
1.9154,3.3136,-9.2895,3.1638,3.7032,-8.5116,-1.186,-0.283,-0.7095,0.3622,-0.3686,0.5156,14.75,-13.25,39,90.43,-22.19,-159.61,28854,2015-10-07 16:26:41:837,0
2.8539,2.8922,-10.6877,3.1289,3.4491,-8.6304,-0.275,-0.5569,-2.0573,0.0234,0.0895,-0.0277,14.5,-13.75,36.75,95.66,-20.64,-160.06,28955,2015-10-07 16:26:41:938,0
2.1261,3.1987,-9.232,3.1126,3.3978,-8.6566,-0.8525,-0.1609,-0.5946,0.3025,0.0043,-0.1726,15.75,-16,34,101.87,-20.73,-159.81,29054,2015-10-07 16:26:42:037,0
2.241,2.9113,-8.9447,2.9618,3.2528,-8.7646,-0.8166,-0.2456,-0.5249,0.2237,0.0234,0.0213,15.5,-17,33,105.63,-19.71,-160.99,29155,2015-10-07 16:26:42:138,0
2.49,2.5666,-9.0788,2.8742,2.9817,-8.8893,-0.5374,-0.4534,0.5191,0.2237,0.1342,-0.1108,16.25,-17,33,107.37,-18.09,-162.06,29255,2015-10-07 16:26:42:238,0
2.7581,2.4708,-8.8298,2.799,2.8324,-8.9618,-0.7033,-0.2471,-0.0129,0.2706,-0.0128,-0.179,18,-17.5,34,106.79,-17.17,-162.49,29354,2015-10-07 16:26:42:337,0
2.1644,2.8347,-8.983,2.7582,2.6499,-9.03,-0.5939,0.1848,0.0469,0.3196,0.1172,-0.066,19.75,-17,35.5,108.25,-16.43,-162.72,29454,2015-10-07 16:26:42:437,0
2.49,2.2984,-9.2129,2.7144,2.4964,-9.0868,-0.2245,-0.198,-0.1261,0.2131,0.1342,-0.1768,22.25,-14.25,38.5,99.72,-14.94,-163.24,29555,2015-10-07 16:26:42:538,0
2.375,1.9154,-9.0597,2.703,2.3608,-9.1264,-0.328,-0.4455,0.0667,-0.0597,0.0021,-0.1001,21.75,-12.25,41.25,96.15,-14.18,-163.57,29655,2015-10-07 16:26:42:638,0
2.49,1.8004,-8.7532,2.7502,2.3164,-9.1236,-0.2603,-0.516,0.3704,-0.0256,0.1023,-0.1917,22.75,-9.75,42.75,92.47,-13.75,-163.4,29755,2015-10-07 16:26:42:738,0
2.3367,2.2218,-9.347,2.674,2.3426,-9.1396,-0.6559,-0.3227,-0.1839,0.179,-0.0682,-0.179,24.5,-5.75,43.75,86.04,-13.79,-163.44,29855,2015-10-07 16:26:42:838,0
2.7773,1.5131,-8.849,2.686,2.2604,-9.1568,0.0913,-0.7472,0.3078,0.1619,0.0767,-0.1491,23.75,-1.75,44.25,82.73,-13.66,-163.77,29955,2015-10-07 16:26:42:938,0
1.7621,2.0303,-9.0022,2.5954,2.33,-9.1655,-0.8333,-0.2997,0.1633,-0.049,0.0511,-0.5454,23.75,0,43.75,76.65,-13.55,-163.98,30055,2015-10-07 16:26:43:038,0
-0.0958,2.0303,-10.228,2.5398,2.2992,-9.1888,-1.3906,0.3632,-0.3114,0.1747,0.7414,-1.6341,23.25,-0.25,44.25,76.14,-13.46,-164.28,30155,2015-10-07 16:26:43:138,0
2.2027,2.2793,-9.347,2.6368,2.1943,-9.1871,-0.4342,0.085,-0.1599,0.8735,0.4815,-1.1888,22.25,0.75,44,75.41,-13.72,-164.23,30255,2015-10-07 16:26:43:238,0
2.8539,1.7238,-9.8641,2.5903,1.7647,-9.2923,0.6725,-0.6641,2.6788,0.1278,0.032,0.4922,21.25,3.5,43.75,72.63,-11.82,-164.16,30354,2015-10-07 16:26:43:337,0
2.0494,1.8004,-9.2895,2.4791,1.8845,-9.2991,-0.4296,-0.084,0.0096,-0.473,-0.3643,0.7819,19.25,5.25,43.75,71.74,-10.45,-164.33,30454,2015-10-07 16:26:43:437,0
2.624,1.6281,-9.5768,2.3827,2.14,-9.2689,-0.0843,-0.4353,-0.0972,-0.2407,0.0256,0.2109,17.75,4.5,44,65.63,-12.17,-165.42,30554,2015-10-07 16:26:43:537,0
2.1452,1.8579,-9.4619,2.5247,2.225,-9.2112,-0.5902,-0.0606,-0.1549,0.3643,0.0937,-0.4218,19,4.75,44,66.54,-12.83,-165.45,30654,2015-10-07 16:26:43:637,0
2.9113,2.0303,-7.6806,2.5381,2.1503,-9.2252,0.1625,0.5695,1.8511,0.277,0.0511,-0.1704,18.5,3.5,44.5,67.91,-12.49,-164.83,30754,2015-10-07 16:26:43:737,0
2.375,1.5323,-9.0022,2.4044,2.0083,-9.2928,-0.0294,-0.476,0.2906,-0.1236,-0.0916,0.1023,18.75,1.75,44,71.7,-12.13,-164.95,30855,2015-10-07 16:26:43:838,0
2.4708,1.8771,-9.1554,2.3589,2.0322,-9.2993,0.112,-0.1551,0.1438,-0.0341,-0.0298,0.0788,16.75,0.75,44.25,72.85,-11.82,-165.49,30955,2015-10-07 16:26:43:938,0
1.8771,2.3176,-8.6574,2.2201,1.9115,-9.3588,-2.4119,-0.8731,0.551,0.3984,-0.2131,0.0021,18,1,44,70.17,-11.83,-165.77,31055,2015-10-07 16:26:44:038,0
2.4134,2.0686,-9.0788,2.2296,1.8885,-9.3612,0.317,0.25,0.5299,0.0937,0.0724,-0.0447,17.75,1.25,44,72.85,-11.49,-166.18,31155,2015-10-07 16:26:44:138,0
2.1261,1.6855,-9.4236,2.1958,1.8787,-9.3712,0.2796,-0.2045,0.1418,0.0234,-0.0234,-0.1534,18,2.75,44.75,69.21,-11.04,-166.81,31254,2015-10-07 16:26:44:237,0
2.241,1.8962,-9.6534,2.1424,1.8223,-9.3947,0.2435,0.096,0.1576,-0.0724,0.1321,-0.1641,18.75,3.5,44.75,68.4,-10.71,-167.15,31355,2015-10-07 16:26:44:338,0
2.3942,1.6664,-9.4427,2.2254,1.8578,-9.3684,0.1688,-0.1914,-0.0744,-0.0298,0.1811,-0.1726,19.25,2.75,44.75,70.02,-10.88,-167,31454,2015-10-07 16:26:44:437,0
2.0686,2.5091,-10.1897,2.135,1.9102,-9.3789,-0.0664,0.5989,-0.8109,0.4389,-0.0383,-0.9097,17.75,3.25,43.75,69,-11.71,-166.19,31554,2015-10-07 16:26:44:537,0
1.8387,1.5897,-12.8904,1.9076,1.3598,-9.5227,-0.0688,0.2299,-3.3676,0.2578,0.4985,-0.6882,17.5,3.25,43.75,70.22,-10.86,-167.59,31655,2015-10-07 16:26:44:638,0
0.8236,0.7278,-6.0525,2.2348,1.1563,-9.4783,-1.4112,-0.4285,3.4258,0.0383,0.4133,-0.3686,17.25,5.5,42,69.32,-7.57,-168.04,31755,2015-10-07 16:26:44:738,0
1.3791,1.7238,-9.0788,2.369,1.1956,-9.4408,-0.99,0.5283,0.362,0.0383,-0.1364,-0.0937,15.5,6.75,41.75,66.04,-7,-165.91,31854,2015-10-07 16:26:44:837,0
2.873,1.1301,-9.3661,2.2173,1.1829,-9.4792,0.6558,-0.0528,0.1131,0.0746,0.0043,-0.1449,14.25,8,41.75,61.7,-6.93,-166.83,31955,2015-10-07 16:26:44:938,0
1.8004,1.0918,-10.6877,2.2159,1.0118,-9.4993,-0.4154,0.08,-1.1884,0.1854,0.1555,-0.3153,13,7.5,42,61.84,-6.97,-166.6,32055,2015-10-07 16:26:45:038,0
2.739,1.4748,-9.6151,2.2427,1.2186,-9.4687,0.8397,0.8079,0.1542,-0.2045,-0.0149,0.0021,12.75,7,40.75,62.9,-6.71,-166.8,32155,2015-10-07 16:26:45:138,0
3.1603,1.3216,-12.7755,2.6559,2.1799,-9.185,0.5044,-0.8583,-3.5904,-1.5425,0.5177,0.2024,12.5,8.25,41.75,58.48,-10.06,-164.98,32254,2015-10-07 16:26:45:237,0
2.7964,2.7581,-8.4467,3.0871,4.2482,-8.2821,-0.3351,-1.0223,-1.2647,-4.2483,0.5923,0.9204,12.25,3.5,43.5,55.89,-20.55,-161.68,32354,2015-10-07 16:26:45:337,0
3.6009,3.7158,-5.1715,4.3311,7.2503,-4.9846,-0.5753,-3.2721,0.2965,-6.2041,1.6405,1.1846,10.25,-6.5,44.25,56.96,-31.87,-156.24,32454,2015-10-07 16:26:45:437,0
5.363,5.7652,2.1261,5.3359,8.2278,-0.0382,-0.2349,-2.56,0.3736,-5.1261,1.4083,0.6029,6,-24.5,37.25,115.75,-57.03,-90.41,32555,2015-10-07 16:26:45:538,0
4.7884,4.4053,6.7612,5.3747,7.0014,4.2736,-0.4507,-2.2488,2.1641,-3.5218,1.4317,0.0362,2,-38,19,159.36,-45.56,-51.51,32654,2015-10-07 16:26:45:637,0
4.0606,3.5626,8.4851,4.7133,5.1035,6.9217,-0.6527,-1.5409,1.5633,-1.9409,0.7883,-0.1129,0,-41.25,-2,181.89,-31.36,-34.25,32754,2015-10-07 16:26:45:737,0
3.2944,2.6624,10.1897,3.9683,3.4938,8.2593,-0.8215,-1.0765,1.6814,-0.9928,0.6541,0.0639,0.75,-40.75,-17.75,194.9,-20.87,-25.66,32854,2015-10-07 16:26:45:837,0
2.2793,1.8579,10.3813,3.0976,2.4401,8.9789,-0.8183,-0.5822,1.4023,-0.2557,0.3643,-0.0107,5.75,-33.75,-27,209.36,-15.39,-20.25,32954,2015-10-07 16:26:45:937,0
2.3559,1.8387,9.7875,2.8038,2.3098,9.109,-0.4479,-0.4711,0.6785,-0.0788,0.2855,0.0128,9.5,-31.5,-32.25,214.51,-14.05,-18.28,33055,2015-10-07 16:26:46:038,0
2.4517,1.8387,9.2703,2.5979,2.296,9.1733,-0.1418,-0.5226,-0.0854,0.0021,0.179,-0.0767,10.5,-28.25,-33.75,224.41,-13.54,-15.81,33155,2015-10-07 16:26:46:138,0
2.3559,1.7047,9.0405,2.4056,2.3451,9.2132,-0.0716,-0.6194,-0.235,0.1236,0.179,-0.0895,10.75,-29,-32.75,221.79,-13.58,-14.85,33255,2015-10-07 16:26:46:238,0
2.1452,1.8962,8.9256,2.2282,2.4316,9.2354,-0.083,-0.5354,-0.3098,-0.0107,0.179,-0.0256,11.75,-28.5,-32.75,224.32,-14.36,-13.56,33355,2015-10-07 16:26:46:338,0
2.0686,2.0111,9.1554,2.0515,2.4434,9.2732,0.0171,-0.4323,-0.1177,0.0149,0.2088,-0.0852,11,-31,-32,221.56,-14.2,-12.63,33455,2015-10-07 16:26:46:438,0
1.8196,1.9345,9.1746,1.9123,2.4537,9.3001,-0.0927,-0.5192,-0.1256,0.0043,0.1321,0.0213,12.5,-31.5,-32.5,217.56,-14.45,-11.8,33555,2015-10-07 16:26:46:538,0
1.8579,1.9728,9.1746,1.8375,2.4536,9.3152,0.0204,-0.4808,-0.1407,0.098,-0.0085,-0.0043,12.5,-30.5,-32.75,221.58,-14.49,-11.16,33655,2015-10-07 16:26:46:638,0
1.6664,2.0494,9.232,1.8589,2.4658,9.3078,-0.1734,-0.3972,-0.0566,-0.1044,-0.0831,-0.0682,13,-32.25,-32,218.72,-14.56,-11.29,33755,2015-10-07 16:26:46:738,0
1.7813,2.1452,9.347,1.8508,2.3963,9.3275,-0.0695,-0.2511,0.0194,-0.049,-0.0447,-0.13,13,-33,-32.5,217.22,-14.2,-11.11,33854,2015-10-07 16:26:46:837,0
1.8196,2.2218,9.1937,1.8794,2.4402,9.3104,-0.0598,-0.2184,-0.1167,-0.032,0.0724,0.0064,13.75,-31,-32.25,221.2,-14.41,-11.41,33954,2015-10-07 16:26:46:937,0
1.8771,2.1835,9.1746,1.8301,2.4522,9.3171,-0.0105,-0.2303,-0.2,-0.0447,-0.0682,0.0277,13.25,-32.75,-32.5,219.92,-14.34,-11.31,34055,2015-10-07 16:26:47:038,0
1.7621,2.2027,9.0022,1.8471,2.4238,9.3211,-0.085,-0.2212,-0.3189,0.1129,-0.1214,-0.0256,13.25,-33.5,-33,217.92,-14.31,-11.21,34154,2015-10-07 16:26:47:137,0
1.7047,2.1644,9.1554,1.8762,2.4022,9.3209,-0.1716,-0.2379,-0.1655,-0.0682,-0.1044,0.017,13.5,-33.5,-32.75,217.43,-14.25,-11.36,34255,2015-10-07 16:26:47:238,0
1.8771,2.2601,9.2703,1.9221,2.363,9.3216,-0.0552,-0.1198,-0.1494,0.0383,0.0426,0.0149,14,-32,-33,219.06,-14.03,-11.55,34354,2015-10-07 16:26:47:337,0
1.7813,2.2793,9.1937,1.9222,2.3607,9.3222,-0.0864,-0.0634,-0.0892,-0.1087,-0.017,0.0746,13,-32,-32.75,219.05,-13.93,-11.65,34455,2015-10-07 16:26:47:438,0
1.992,2.3559,9.347,1.9321,2.3287,9.3282,0.0625,0.022,0.0195,-0.0362,0.0575,0.0469,12.75,-32.25,-32.75,218.94,-13.74,-11.7,34554,2015-10-07 16:26:47:537,0
2.241,2.624,9.9024,2.0347,2.4279,9.2809,0.1383,0.3425,0.5442,0.2791,-0.3238,-0.1981,13.75,-32.5,-32.5,220.53,-14.33,-12.37,34655,2015-10-07 16:26:47:638,0
2.5091,3.5434,8.1786,2.2579,3.0333,9.0483,0.3003,0.3931,-0.8418,0.5944,0.1172,-0.2471,14.75,-32.5,-32.5,220.53,-14.33,-12.37,34755,2015-10-07 16:26:47:738,0
1.8771,3.237,8.6191,1.87,3.5005,8.9677,0.007,-0.2635,-0.3486,0.3579,0.2152,-0.1449,13,-35,-32,220.61,-20.91,-11.78,34855,2015-10-07 16:26:47:838,0
1.6472,3.2561,8.2361,1.7466,3.8528,8.8474,-0.1649,-0.5797,-0.575,0.3302,0.0085,-0.2493,14.5,-35.75,-32.25,223.66,-23.13,-11.17,34955,2015-10-07 16:26:47:938,0
1.5514,3.486,8.0637,1.752,4.1241,8.7231,-0.1187,-0.6985,-0.2941,0.3025,-0.1023,-0.017,13.25,-35.25,-31.25,223.23,-24.87,-11.36,35054,2015-10-07 16:26:48:037,0
1.3024,3.8499,8.2935,1.8105,4.2965,8.6274,-0.4889,-0.5233,-0.3914,0.2855,-0.1981,0.0107,15.5,-36,-30.25,226.18,-25.98,-11.85,35155,2015-10-07 16:26:48:138,0
1.8579,4.4436,8.9256,2.0497,4.5016,8.4679,-0.1659,-0.0308,0.4225,0.3601,-0.2812,-0.0639,16,-37.25,-28.75,225.93,-27.33,-13.61,35255,2015-10-07 16:26:48:238,0
2.7773,5.4205,9.0214,2.3323,4.9541,8.1356,0.4727,0.5431,0.8317,0.8607,-0.4218,-0.2173,14.75,-36.75,-28.5,227.3,-30.34,-16,35355,2015-10-07 16:26:48:338,0
2.7198,7.1635,7.9296,2.5898,6.0362,7.282,0.2641,0.8208,1.1264,2.0751,-0.9183,-0.7222,12.75,-37.5,-27.75,230.83,-34.45,-18,35454,2015-10-07 16:26:48:437,0
2.0303,7.5657,5.1906,2.4483,7.5231,5.7948,-0.4946,0.0043,0.5451,2.7825,-0.6946,-0.9864,11.75,-42.75,-23.25,233.3,-50.1,-22.9,35554,2015-10-07 16:26:48:537,0
0.2873,7.3167,1.8387,1.9392,9.1074,3.0766,-1.3071,-1.7332,-0.7016,3.0445,-0.62,-0.6775,14.75,-44.75,-14,240.32,-61.17,-26.81,35655,2015-10-07 16:26:48:638,0
0.6704,7.4316,-0.8045,1.5971,9.6713,0.2935,-0.9268,-2.2397,-1.0979,1.5958,0.5795,0.0298,17.25,-44.5,-2.5,223.77,-76.83,-49.89,35755,2015-10-07 16:26:48:738,0
1.3599,8.2169,-2.0303,1.6877,9.5906,-1.1586,-0.3278,-1.3737,-0.8717,1.11,0.6498,0.1832,19.25,-43.5,8.25,138.87,-77.95,-124.47,35854,2015-10-07 16:26:48:837,0
1.7813,8.2169,-3.1987,1.9706,9.3623,-2.1529,-0.2725,-0.9179,-2.1791,0.5667,0.833,0.3196,20,-42.75,12.75,125.86,-74.87,-133.11,35955,2015-10-07 16:26:48:938,0
1.9537,8.7724,-5.0566,2.3112,9.0778,-2.9021,0.188,-0.6413,-0.8998,0.897,0.2109,0.2258,15.75,-39.25,22.5,105.27,-67.77,-141.47,36055,2015-10-07 16:26:49:038,0
2.1261,8.2744,-3.4668,2.4495,8.9178,-3.2625,-0.3234,-0.6434,-0.2043,0.6796,0.0767,-0.0234,13.25,-38.5,24.75,100.54,-65.42,-143.1,36155,2015-10-07 16:26:49:138,0
2.3176,8.2169,-3.5434,2.4807,8.775,-3.6079,-0.1631,-0.5581,0.0644,0.767,0.1619,-0.2045,12.5,-38.5,26.25,99.24,-64.78,-143.67,36255,2015-10-07 16:26:49:238,0
2.2601,8.0062,-4.7309,2.5284,8.3284,-4.5184,-0.2108,-0.2839,-0.2317,0.9694,0.5241,-0.2173,12.25,-35.5,28.75,92.27,-59.93,-150.02,36355,2015-10-07 16:26:49:338,0
2.1069,7.4891,-4.9225,2.6024,7.9652,-5.0945,-0.936,-0.7443,1.0914,0.7031,-0.098,0.0277,10.75,-34,31.75,91.58,-58.13,-150.77,36455,2015-10-07 16:26:49:438,0
1.6089,6.6463,-4.6735,2.5646,7.8478,-5.2921,-0.9748,-1.144,1.2698,0.049,-0.3238,0.3558,10.25,-32,35.5,82.26,-53.23,-154.28,36555,2015-10-07 16:26:49:538,0
2.5283,7.3741,-4.6926,2.6359,7.6913,-5.4832,0.716,-0.9109,1.0205,0.0916,-0.4282,1.2911,9.25,-28.5,38.75,77.04,-53.15,-154.14,36655,2015-10-07 16:26:49:638,0
4.7309,6.9145,-6.1292,3.1936,6.9699,-6.1149,1.5374,-0.0554,-0.0142,-0.6946,-0.9651,1.3209,10.25,-27.5,40.25,79.4,-48.59,-152.13,36754,2015-10-07 16:26:49:737,0
3.3136,5.7461,-6.7804,3.3216,6.6428,-6.4039,-0.008,-0.8967,-0.3764,0.3025,-1.5169,0.49,10.75,-24,40.5,81.35,-44.81,-151,36854,2015-10-07 16:26:49:837,0
2.7198,6.1866,-9.4427,2.6852,5.9492,-7.319,0.0346,0.2375,-2.1237,-0.4091,-0.1129,0.98,12.5,-19,39.5,78.02,-38.67,-159.07,36954,2015-10-07 16:26:49:937,0
3.5434,5.4971,-8.849,2.9548,5.8493,-7.2956,0.5886,-0.3522,-1.5534,-0.1875,0.3174,0.1044,18.5,-12.25,40.25,75.11,-36.75,-158.73,37055,2015-10-07 16:26:50:038,0
4.9416,5.4205,-7.106,3.726,6.0663,-6.7445,1.6696,-0.2477,-0.2347,-0.2131,1.1569,-0.7201,21,-13,41.5,75.17,-36.87,-156.92,37155,2015-10-07 16:26:50:138,0
4.5011,6.2632,-6.6655,4.0925,6.504,-6.0926,0.224,-0.4211,-0.2052,-0.5475,1.2549,-0.9246,21,-8.5,35.5,80.38,-38.21,-151.08,37255,2015-10-07 16:26:50:238,0
3.8116,7.5274,-5.4013,3.7823,7.0538,-5.6664,-0.0394,0.3993,0.2076,-0.0256,0.9396,-1.3891,32.25,-12,12.5,90.55,-41.55,-146.11,37355,2015-10-07 16:26:50:338,0
3.0837,6.5697,-4.9033,3.419,7.8552,-4.7725,-0.3352,-1.2855,-0.1309,-0.2386,1.1292,-1.0951,23.75,-34.25,-7.25,134.54,-47.53,-146.24,37454,2015-10-07 16:26:50:437,0
2.9305,7.7381,-4.1755,3.185,8.238,-4.2616,-0.2545,-0.5,0.0861,-0.1257,-0.0959,-0.3324,-7.75,-44,-4,178.92,-53.23,-144.38,37555,2015-10-07 16:26:50:538,0
3.3902,6.8953,-2.988,3.0213,8.3251,-4.2113,0.3306,-1.1999,1.1468,-0.3451,-0.7904,0.3515,-21.5,-49.75,0.75,219,-57.14,-143.23,37655,2015-10-07 16:26:50:638,0
1.5514,8.0828,-2.8922,2.7626,8.2981,-4.4362,-1.3261,-0.1195,0.8545,0.1491,-1.9345,0.914,-21.25,-49.25,-0.5,227.92,-58.38,-146.43,37755,2015-10-07 16:26:50:738,0
3.4668,6.7612,-4.5011,2.8568,8.2299,-4.503,-0.5941,-1.5636,0.0675,-0.3665,0.0533,0.9119,-18.75,-49.75,-3.75,220.22,-57.2,-148.7,37855,2015-10-07 16:26:50:838,0
3.6966,7.1635,-4.2904,3.7049,8.4209,-3.3958,-0.4451,-1.5386,-0.8573,-1.5979,0.0043,1.0866,-21,-55.75,-1.25,222.15,-58.43,-137.86,37955,2015-10-07 16:26:50:938,0
4.0414,7.9487,-4.7118,4.8044,8.5216,-0.6861,-1.1684,-1.8239,-3.7925,-3.9074,2.0112,0.9992,-22.25,-53,11,158.83,-60.43,-112.21,38055,2015-10-07 16:26:51:038,0
3.4477,3.4668,7.5082,4.4716,6.206,6.1368,-1.2828,-2.4543,1.7339,-5.582,5.1921,0.4432,-14.5,-42.25,15,141.73,-49.01,-53.27,38155,2015-10-07 16:26:51:138,0
0.5746,1.1492,13.5608,1.6485,2.4564,9.3498,-1.0739,-1.3071,4.2109,-1.7279,1.6639,0.5475,-12.25,-34,-10,161.73,-20.12,-14.58,38254,2015-10-07 16:26:51:237,0
0.7278,1.494,9.845,1.0491,1.8277,9.5775,-0.5894,-0.2188,0.5547,-0.147,0.179,0.5369,-6.5,-19.5,-35,170.9,-11.15,-6.68,38355,2015-10-07 16:26:51:338,0
1.3982,0.8428,10.6494,1.2559,1.5465,9.6022,0.104,-0.608,-0.2935,-0.3238,0.1704,0.1811,-4.25,-15,-43.25,191.37,-9.07,-7.45,38454,2015-10-07 16:26:51:437,0
1.6664,0.5171,10.0748,1.4038,1.261,9.6234,0.1285,-0.5715,0.6429,-0.2961,0.2557,0.1001,-5.5,-15.25,-42,183.09,-8.11,-7.15,38554,2015-10-07 16:26:51:537,0
1.7621,0.5555,10.6686,1.2131,0.9977,9.6801,0.2426,-0.3847,0.6054,-0.1385,0.1726,0.1044,-6.5,-14,-41,179.87,-7.39,-8.3,38654,2015-10-07 16:26:51:637,0
0.7087,0.8045,9.9216,0.7117,0.9232,9.7371,0.246,-0.1762,0.2611,0.3707,0.2535,0.0128,-6.5,-14,-40.5,171.29,-5.4,-6.33,38755,2015-10-07 16:26:51:738,0
0.5171,1.3216,8.8298,0.6154,1.4603,9.6778,-0.0912,-0.1874,-0.8409,0.5689,0.0107,-0.1704,-4.75,-15,-41.5,166.85,-7.43,-3.86,38855,2015-10-07 16:26:51:838,0
0.3448,1.7813,9.098,0.606,1.8591,9.6097,-0.2207,-0.1618,-0.4976,0.3217,0.1108,-0.1193,-3.5,-16,-41,177.01,-10.93,-3.61,38955,2015-10-07 16:26:51:938,0
0.3256,2.2601,9.1363,0.5127,2.3117,9.5165,-0.1871,-0.0516,-0.3802,0.2003,-0.0554,-0.179,-4,-16,-39.5,175.26,-11.67,-3.28,39055,2015-10-07 16:26:52:038,0
0.3639,2.2601,8.8681,0.4928,2.472,9.4772,-0.1732,-0.2245,-0.5288,0.098,-0.1172,-0.1129,-3.75,-16.5,-38.5,160.31,-14.51,-2.82,39155,2015-10-07 16:26:52:138,0
0.3448,2.4325,8.6766,0.6304,2.5782,9.4406,-0.2857,-0.1457,-0.7641,-0.0618,0.0043,-0.1236,-2.75,-18.25,-38.5,174.32,-15.11,-3.4,39254,2015-10-07 16:26:52:237,0
0.498,2.2793,9.3853,0.7126,2.5163,9.4515,-0.3103,-0.237,-0.1237,-0.115,-0.1065,-0.0426,-4,-18.75,-37.75,171.29,-15.02,-4.07,39355,2015-10-07 16:26:52:338,0
0.6129,2.2984,9.5385,0.7619,2.4526,9.4644,-0.1873,-0.1733,0.1699,0.0298,-0.1087,-0.0234,-4.25,-17.5,-37.5,172.82,-14.59,-4.35,39455,2015-10-07 16:26:52:438,0
1.0151,2.4134,9.6534,1.0153,2.5107,9.4253,0.0573,-0.1165,0.1898,0.0746,-0.2834,-0.0426,-4.5,-18.5,-37.5,179.9,-14.83,-6.15,39554,2015-10-07 16:26:52:537,0
1.3216,2.2027,9.6726,1.296,2.5158,9.3894,-0.0701,-0.2174,-0.0616,0.0916,-0.2493,0.115,-5.25,-19.25,-37.25,178.45,-14.89,-7.33,39654,2015-10-07 16:26:52:637,0
1.245,2.3367,9.1554,1.4052,2.5264,9.3709,-0.1219,-0.1514,-0.2346,0.0149,-0.0383,0.1001,-5.25,-19.5,-37,182.29,-14.92,-8.23,39754,2015-10-07 16:26:52:737,0
1.3982,2.375,9.3087,1.5082,2.5047,9.3607,-0.1291,-0.1105,-0.0903,0.0256,-0.13,0.13,-7,-19.75,-36.75,173.98,-14.8,-9.15,39854,2015-10-07 16:26:52:837,0
1.5323,2.5283,8.983,1.6034,2.5313,9.3377,-0.0711,-0.003,-0.3546,0.0107,-0.049,0.1513,-7,-19.5,-37,175.78,-14.96,-9.74,39954,2015-10-07 16:26:52:937,0
1.743,2.4134,9.1746,1.6782,2.491,9.3354,0.0647,-0.0776,-0.1608,0.0043,0.0746,0.0554,-8,-20.25,-36,171.43,-14.71,-10.19,40055,2015-10-07 16:26:53:038,0
1.6089,2.375,9.1554,1.6612,2.4584,9.347,-0.0888,-0.1194,-0.1542,0.0256,0.032,-0.0852,-7.25,-19.5,-35.5,175.35,-14.52,-10.08,40155,2015-10-07 16:26:53:138,0
1.6281,2.2793,9.2512,1.6114,2.4178,9.3663,0.0741,-0.1386,-0.1343,-0.0511,0.1491,0.0192,-8.25,-18.75,-35.5,176.4,-14.48,-10.1,40255,2015-10-07 16:26:53:238,0
1.7621,2.5091,9.1746,1.6112,2.3852,9.3747,0.17,0.1622,-0.2576,-0.1193,0.0277,-0.0511,-8.5,-18,-36.5,168.13,-14.08,-9.75,40354,2015-10-07 16:26:53:337,0
1.5897,2.4134,9.3087,1.5929,2.3371,9.3899,-0.0199,0.1247,-0.0268,-0.0618,0.0256,-0.2684,-7.75,-19,-36.75,169.8,-13.79,-9.63,40454,2015-10-07 16:26:53:437,0
1.4365,2.3367,9.1171,1.5331,2.3388,9.3995,-0.1349,0.0171,-0.3207,0.1406,0.1087,-0.1065,-7,-18.5,-36.75,174.11,-13.52,-9.41,40554,2015-10-07 16:26:53:537,0
1.6472,2.3942,9.4619,1.4664,2.3458,9.4084,0.1808,0.0484,0.0535,-0.1087,0.0064,-0.0937,-6.25,-17.75,-36.75,172.94,-13.84,-9.12,40655,2015-10-07 16:26:53:638,0
1.3599,2.2601,9.5002,1.3818,2.3502,9.4201,-0.0219,-0.09,0.0801,0.1321,0.0618,-0.147,-5.75,-19,-36.5,175.8,-13.87,-8.35,40755,2015-10-07 16:26:53:738,0
1.3024,2.2218,9.1746,1.2335,2.4122,9.425,0.069,-0.1903,-0.2504,0.0256,0.1321,-0.0107,-6,-18.75,-36.5,180.41,-14.16,-7.79,40855,2015-10-07 16:26:53:838,0
1.1684,2.4517,9.0788,1.0307,2.4343,9.4436,0.1377,0.0174,-0.3648,-0.0043,0.1321,-0.0469,-5,-18.25,-36.5,175.6,-14.3,-6.76,40954,2015-10-07 16:26:53:937,0
0.996,2.3942,9.347,0.8487,2.3886,9.4734,0.1473,0.0056,-0.1264,-0.0533,0.0682,-0.1342,-3.75,-17.25,-37,170.3,-14.26,-5.88,41055,2015-10-07 16:26:54:038,0
0.5555,2.3176,9.4044,0.6299,2.3016,9.5119,-0.1511,0.0352,-0.0692,-0.0959,0.1214,-0.1811,-2.5,-17.75,-37,182.92,-13.57,-3.79,41154,2015-10-07 16:26:54:137,0
0.1724,2.2601,9.0022,0.3146,2.1929,9.5531,-0.1997,0.0097,-0.2636,0.1236,0.0192,-0.2322,-1.5,-16.75,-37.75,181.78,-12.92,-1.89,41254,2015-10-07 16:26:54:237,0
0.0192,2.2027,8.9256,0.1541,2.1778,9.5605,-0.2115,0.0248,-0.4626,-0.0277,0.1342,-0.0213,-0.5,-18.5,-38.25,183.84,-12.83,-0.92,41354,2015-10-07 16:26:54:337,0
0.1915,2.1452,8.4467,0.1822,2.0909,9.5794,0.086,-0.0606,-1.1518,-0.2216,-0.0554,0.0575,-0.25,-18.25,-37.75,183.09,-12.63,-0.75,41454,2015-10-07 16:26:54:437,0
0.6512,1.8962,9.1746,0.5719,1.9551,9.5928,0.1751,-0.0014,-0.399,-0.1257,-0.4474,0.1342,0.75,-18.75,-38,193.9,-11.66,-2.58,41555,2015-10-07 16:26:54:538,0
0.5555,1.8387,9.1554,0.811,1.7956,9.6067,-0.2555,0.0431,-0.4513,-0.3153,-0.4964,0.0043,0.5,-17.5,-37.75,203.17,-10.55,-4.83,41655,2015-10-07 16:26:54:638,0
0.6129,1.4365,8.5042,1.2997,1.5293,9.5991,-0.6868,-0.0928,-1.0949,-0.147,-0.9161,0.1747,-1.5,-16.75,-39.5,199.98,-9.25,-6.57,41755,2015-10-07 16:26:54:738,0
2.1452,0.996,8.849,2.1952,1.0695,9.4978,-0.05,-0.0735,-0.6488,-0.3601,-1.1143,0.3089,-3.75,-15.25,-40,205.82,-6.26,-13.01,41855,2015-10-07 16:26:54:838,0
3.0071,0.4597,9.9024,2.6918,0.5839,9.4119,0.277,-0.1625,0.7587,-0.5284,-0.4559,0.1619,-5.5,-14,-41,209.25,-3.41,-15.96,41955,2015-10-07 16:26:54:938,0
2.2984,0.5555,7.5657,3.1322,-0.0339,9.2929,-0.6933,0.5412,-1.4866,-0.3558,-0.5007,0.3963,-8,-10.75,-41.75,206.64,-1.39,-17.31,42054,2015-10-07 16:26:55:037,0
2.9497,-0.1341,5.1332,3.7882,-0.576,9.0271,0.1,-0.42,-2.3233,-1.2059,-0.931,0.6008,-10.25,-6.75,-41.5,209.88,0.74,-19.43,42154,2015-10-07 16:26:55:137,0
6.9528,-2.739,8.6,4.9567,-1.4386,8.3386,1.613,-0.7449,-0.8112,-1.5659,-1.3422,0.7862,-11.5,-7,-40.75,217.36,5.21,-24.9,42254,2015-10-07 16:26:55:237,0
7.6614,-3.8307,8.9256,6.1949,-2.7386,7.0918,1.4666,-1.0921,1.8338,-1.2783,-1.1164,0.8117,-14.25,-3.25,-39,227.9,16.22,-41.14,42354,2015-10-07 16:26:55:337,0
8.0828,-4.4245,4.1563,7.2912,-3.8359,5.3193,0.9449,-0.7227,-1.4311,-1.1143,-1.7662,0.7755,-18.5,-0.5,-37.25,233.6,23.03,-53.89,42455,2015-10-07 16:26:55:438,0
9.5002,-6.0908,5.1332,7.7107,-5.0163,3.3988,1.8278,-1.0937,0.7,-1.1207,-1.649,0.5241,-24.25,2.5,-35,234.61,30.77,-66.21,42555,2015-10-07 16:26:55:538,0
9.4427,-5.7844,5.1332,7.8016,-5.5229,2.1917,1.8136,-0.2806,2.7691,-1.2847,-0.3409,0.081,-29.75,6.25,-31,234.47,32.19,-69.62,42655,2015-10-07 16:26:55:638,0
8.2744,-5.4013,3.486,7.795,-5.6018,2.0069,0.4793,0.1813,1.5748,-0.2642,-0.0937,-0.017,-35,10.25,-26.25,230.03,34.9,-75.41,42755,2015-10-07 16:26:55:738,0
8.0445,-5.0374,3.2753,7.8185,-5.566,2.0153,0.226,0.5477,1.26,-0.1598,-0.0192,-0.2067,-36.75,12.75,-24.5,227.06,34.58,-75.55,42854,2015-10-07 16:26:55:837,0
8.0828,-5.3439,3.6009,7.9166,-5.3711,2.1562,0.1663,0.0273,1.4447,0.066,0.2109,-0.1534,-37,14,-23.5,228.2,33.21,-74.76,42954,2015-10-07 16:26:55:937,0
8.102,-5.4779,3.6775,7.9533,-5.1349,2.5588,0.1486,-0.343,1.1187,0.4943,0.424,-0.2493,-37.75,14.5,-23.25,231.49,32.62,-73.8,43054,2015-10-07 16:26:56:037,0
7.9679,-5.114,3.5243,7.8764,-4.7263,3.4343,0.0284,-0.311,-0.058,0.4794,0.5965,-0.1513,-36,13.25,-24,224.17,30.22,-69.14,43155,2015-10-07 16:26:56:138,0
7.9104,-4.8267,3.9265,7.805,-4.3765,4.0123,0.1054,-0.4503,-0.0858,0.7436,0.4495,-0.1044,-32.5,12,-26.5,229.45,26.5,-62.79,43255,2015-10-07 16:26:56:238,0
7.5465,-4.367,3.2561,7.7563,-3.9523,4.5154,-0.2098,-0.4147,-1.2593,0.6946,0.3728,-0.0362,-31.75,9,-28.75,225.56,23.77,-59.79,43354,2015-10-07 16:26:56:337,0
7.5848,-4.118,3.7158,7.7041,-3.7436,4.7753,-0.1192,-0.3745,-1.0595,0.2578,0.1065,0.0682,-31,6.5,-29.5,225.16,22.63,-58.67,43455,2015-10-07 16:26:56:438,0
7.9679,-4.5011,4.4053,7.6203,-3.6313,4.9914,0.3476,-0.8698,-0.5861,-0.3111,0.4218,-0.343,-29.25,5,-30.75,223.38,21.73,-56.77,43554,2015-10-07 16:26:56:537,0
6.8187,-4.5203,4.118,7.5438,-3.6936,5.0615,-0.7251,-0.8267,-0.9435,-0.5177,0.3025,-0.2237,-28,5.25,-32,225.35,22.13,-56.14,43654,2015-10-07 16:26:56:637,0
6.3398,-4.7692,3.237,7.6845,-3.9892,4.6049,-1.3255,-0.8183,-1.5977,-0.2237,-1.1015,0.3388,-27,5.25,-32.5,227.55,22.83,-56.65,43754,2015-10-07 16:26:56:737,0
8.5617,-6.4931,2.1261,8.0748,-4.6263,3.0929,0.3145,-1.8093,-1.1009,-0.5689,-2.0347,0.6136,-28.25,5,-33,230.83,25.31,-62.24,43854,2015-10-07 16:26:56:837,0
10.5536,-7.355,1.3982,8.183,-5.2748,1.1771,2.1791,-1.9078,0.4318,-0.8991,-1.9004,0.4368,-33,6,-28.5,240.46,31.24,-77.62,43954,2015-10-07 16:26:56:937,0
8.2361,-6.7995,1.6089,8.1096,-5.5134,-0.0886,0.1359,-1.0435,1.8211,-2.0538,0.4005,0.049,-35.75,8,-25,240.55,33.95,-88.92,44054,2015-10-07 16:26:57:037,0
7.6806,-5.8419,-0.3448,8.1382,-5.4246,-0.7174,-0.042,-0.5791,0.3708,-1.5084,0.098,-0.4112,-40,11.25,-18.25,238.81,34.21,-90.63,44155,2015-10-07 16:26:57:138,0
5.4971,-5.0757,-0.4022,8.2308,-5.1839,-1.2457,-2.6266,0.0824,0.7156,-2.3755,0.7095,0.2237,-43.25,14.5,-16,249.15,31.91,-98.61,44255,2015-10-07 16:26:57:238,0
6.11,-5.3822,0.6704,7.9408,-5.4387,-1.8801,-1.9906,-0.026,2.4008,-2.3074,0.4197,1.1782,-42.5,17,-17.25,256.39,33.68,-103.32,44354,2015-10-07 16:26:57:337,0
8.2552,-5.3056,0.4788,7.3211,-6.0494,-2.4449,0.6381,0.6443,3.0089,-1.8365,0.5582,1.4552,-42.25,19.75,-17.25,260.99,34.92,-104.95,44454,2015-10-07 16:26:57:437,0
9.2129,-4.3479,0.0958,6.8829,-6.4572,-2.6646,1.9442,1.7479,3.0893,-1.4743,1.6256,1.338,-38,30,-16.5,273.06,39.18,-109.85,44554,2015-10-07 16:26:57:537,0
9.8067,-3.6583,-0.1341,6.967,-6.5023,-2.3132,2.4925,2.9727,2.1288,-0.9715,1.3444,0.5965,-34.75,37,-17,282.14,41.72,-110.42,44655,2015-10-07 16:26:57:638,0
10.4387,-5.0757,-0.3448,7.1598,-6.4956,-1.6475,3.5032,1.0691,1.1022,0.4218,0.5816,0.1641,-30.75,42.75,-17.75,297.28,41.48,-105.03,44755,2015-10-07 16:26:57:738,0
10.7452,-5.3056,-0.6895,7.6443,-6.075,-0.9107,3.1445,1.0206,0.5165,1.0141,-0.1491,-0.8309,-29.5,43,-20.25,306.74,38.28,-96.79,44854,2015-10-07 16:26:57:837,0
8.734,-5.9376,0.3256,8.3878,-5.0653,-0.3972,0.4037,-0.8915,0.5696,1.0141,-0.2045,-1.5063,-30.5,42.75,-21,307.53,36.19,-95.46,44954,2015-10-07 16:26:57:937,0
9.098,-6.1292,-1.1492,8.9108,-4.0754,-0.3994,0.1872,-2.1496,-0.7116,1.4701,-0.9289,-1.2826,-34,33.25,-24.25,302.66,24.56,-92.57,45054,2015-10-07 16:26:58:037,0
8.102,-6.2249,-0.8811,9.3603,-2.888,-0.4629,-1.2583,-3.3369,-0.4181,-0.2834,0.5177,-1.2187,-37.25,26.75,-24,300.62,17.13,-92.83,45155,2015-10-07 16:26:58:138,0
6.7995,-6.1483,-0.5363,9.5365,-2.2424,-0.4448,-2.2683,-3.9418,-0.1349,-0.946,0.1534,-0.637,-41.5,17.75,-23.25,291.54,15.58,-92.56,45255,2015-10-07 16:26:58:238,0
6.1675,-5.3247,-0.0958,9.4875,-2.4509,-0.3879,-3.5437,-3.0996,0.439,-1.1782,0.2834,0.5561,-42.25,12.75,-24.25,281.76,13.05,-92.6,45354,2015-10-07 16:26:58:337,0
6.9911,-5.5545,0.1149,9.0964,-3.6252,-0.5331,-1.6514,-1.9337,0.7971,-1.3337,0.0959,1.6767,-42.75,11.5,-23,267.75,15.96,-92.38,45454,2015-10-07 16:26:58:437,0
10.2472,-6.359,0.2107,8.1742,-5.296,-1.1425,1.5558,-1.0439,1.3149,-1.2783,-0.3814,2.0837,-41.25,17,-23,259.28,26.07,-94.7,45554,2015-10-07 16:26:58:537,0
12.6414,-8.0254,-0.0383,7.2626,-6.3453,-1.7783,5.3788,-1.68,1.74,-1.5936,0.326,1.2016,-37.75,26.5,-20.5,261.94,38.09,-101.44,45655,2015-10-07 16:26:58:638,0
9.0022,-5.5354,0.0766,6.8639,-6.7101,-2.0081,2.1383,1.1747,2.0847,-1.3167,1.0631,1.2144,-33,35.25,-16,275.91,42.5,-105.95,45755,2015-10-07 16:26:58:738,0
8.2744,-2.1261,-0.1149,6.4359,-7.0956,-2.098,2.2215,4.6822,1.9448,0.2855,-0.4474,0.1854,-28.25,41,-12.5,300.28,46.35,-108.06,45855,2015-10-07 16:26:58:838,0
11.2432,-4.3862,-1.7238,7.1384,-6.437,-1.9439,3.9132,1.9933,-0.3163,-0.4985,0.8394,-1.7982,-24.5,44.25,-10.25,321.02,41.03,-105.23,45954,2015-10-07 16:26:58:937,0
8.6957,-4.7309,-1.1492,8.4141,-4.8188,-1.4672,0.7414,0.0496,0.2414,0.2919,0.1385,-2.4458,-25.5,44.25,-9.5,334,29.43,-99.89,46054,2015-10-07 16:26:59:037,0
8.6957,-4.5011,-1.6664,9.3099,-2.8843,-1.0853,-0.5758,-1.6935,-0.8492,1.5894,0.0085,-1.3934,-30.25,40,-9.5,337.23,21.98,-98.16,46154,2015-10-07 16:26:59:137,0
7.7955,-4.6352,-1.9537,9.5767,-1.961,-0.7819,-1.7812,-2.6742,-1.1718,1.6426,-0.1939,-1.1611,-36.5,32,-11.75,328.58,11.54,-94.67,46255,2015-10-07 16:26:59:238,0
7.1826,-4.1563,-1.2258,9.6705,-1.5368,-0.5381,-2.4879,-2.6195,-0.6877,0.8906,0.4368,-0.5348,-40.5,25.25,-14.75,324.53,9.82,-94.08,46355,2015-10-07 16:26:59:338,0
8.4851,-4.2713,-0.6321,9.6221,-1.892,-0.0769,-0.8409,-2.164,-0.6871,0.8458,0.2876,0.3963,-42,19,-17.5,311.3,9.84,-91.06,46454,2015-10-07 16:26:59:437,0
10.8984,-4.616,-1.1301,9.3894,-2.815,0.293,0.8961,-1.3413,-0.8101,0.8586,-0.0916,1.2911,-42.25,18,-18.75,291.94,13.86,-88.92,46555,2015-10-07 16:26:59:538,0
8.983,-3.0837,0.6512,9.063,-3.7439,0.1235,0.0226,0.8498,0.1885,0.2599,-0.3771,0.49,-41.25,17.75,-21,285.81,16.68,-88.21,46655,2015-10-07 16:26:59:638,0
8.849,-4.118,1.6855,9.0006,-3.8899,0.1704,-0.5662,0.2421,1.6544,0.4602,-0.0831,0.2919,-38.5,21,-22,280.76,23.37,-88.92,46755,2015-10-07 16:26:59:738,0
11.4922,-3.2561,1.3599,8.9085,-4.0847,0.3519,2.5837,0.8286,1.008,0.882,-0.3622,0.1321,-38.25,21,-21.75,278.62,24.39,-88.08,46855,2015-10-07 16:26:59:838,0
9.3661,-4.118,1.9728,9.2217,-3.2265,0.8486,0.2976,-0.6808,1.1817,0.3217,0.3451,-1.1867,-38.25,22.5,-21.75,289.2,21.8,-85.94,46955,2015-10-07 16:26:59:938,0
9.0022,-4.2521,1.494,9.447,-2.3919,1.0965,-0.5598,-1.841,0.4741,0.4666,0.032,-0.8245,-38.25,20.25,-22.75,294.39,15.6,-83.49,47055,2015-10-07 16:27:00:038,0
9.3853,-3.984,1.2258,9.5824,-1.7119,1.1903,-0.1972,-2.2721,0.0355,0.2024,0.147,-0.7457,-39.5,17,-24.75,296.31,12.77,-83.22,47155,2015-10-07 16:27:00:138,0
10.5345,-3.6009,1.9154,9.6196,-1.3477,1.3482,0.9149,-2.2532,0.5671,-0.0959,0.2131,-0.8778,-40.75,12,-25.25,287,7.9,-82.02,47255,2015-10-07 16:27:00:238,0
9.0214,-1.5131,2.1452,9.6182,-0.5391,1.8355,0.9546,-2.7744,-0.7055,-0.3068,1.1121,-0.3111,-41.5,7.25,-25.5,282.77,3.75,-80.62,47355,2015-10-07 16:27:00:338,0
6.9145,1.3216,1.2258,9.4237,0.0087,2.7138,-2.2794,1.198,-1.6795,1.4914,0.2791,-0.3047,-40,3.25,-27.75,273.84,2.31,-75.69,47455,2015-10-07 16:27:00:438,0
9.4619,1.5131,2.9113,9.3922,0.6009,2.7559,0.2612,0.9697,0.2895,1.0035,0.0021,-0.4112,-38,0.75,-31,276.81,-0.05,-73.93,47555,2015-10-07 16:27:00:538,0
10.4579,1.8579,4.3287,9.3606,1.5012,2.5092,1.5326,0.0852,1.5921,1.7833,-0.0447,-1.2123,-36.75,-3.5,-31.5,276.55,-6.87,-74.35,47655,2015-10-07 16:27:00:638,0
8.6383,1.7047,3.2178,8.9841,3.3435,2.0683,-0.4253,-1.4979,1.2881,2.8208,0.1811,-1.2272,-36.75,-9.25,-30.5,275.19,-14.1,-75.72,47755,2015-10-07 16:27:00:738,0
8.849,2.3942,1.8579,8.5685,4.6255,1.1642,0.2804,-2.2313,0.6937,3.2043,0.5135,-1.4466,-35,-17.25,-27.5,273.84,-25.48,-80.59,47855,2015-10-07 16:27:00:838,0
8.1594,3.0071,-2.3176,7.8866,5.7276,-1.0802,0.7007,-2.2325,-0.6908,3.5473,0.0362,-1.8493,-31.5,-26.5,-21.75,263.3,-28.14,-82.26,47955,2015-10-07 16:27:00:938,0
6.7995,2.6624,-3.1029,6.4381,6.1314,-4.1385,0.3614,-3.469,1.0356,6.3064,-2.5268,-3.3748,-26.5,-35.75,-9.5,229.52,-38.8,-109.01,48055,2015-10-07 16:27:01:038,0
1.9154,1.5706,-10.7452,3.4536,4.1241,-8.1997,-1.4077,-2.3334,-2.2287,3.3321,-0.5071,-2.9465,-17,-39.25,7.5,203.06,-24.87,-157.16,48155,2015-10-07 16:27:01:138,0
0.6321,0.6512,-6.6655,2.1795,2.1091,-9.3259,-1.2192,-1.4759,2.0937,1.681,0.3238,-1.0461,-1.75,-28,28,167.36,-14.6,-166.67,48255,2015-10-07 16:27:01:238,0
3.5434,-0.8428,-8.9064,2.2125,0.742,-9.525,1.3849,-1.6456,0.6093,0.9566,0.5625,-0.3558,8.25,-14,36.5,122.53,-6.65,-167.98,48355,2015-10-07 16:27:01:338,0
4.0797,-0.1532,-10.3238,2.5736,0.4463,-9.4524,1.519,-0.532,-0.865,-0.3941,0.1065,0.179,11.25,-3.5,40,109.08,-4.34,-166.92,48454,2015-10-07 16:27:01:437,0
2.6049,0.0958,-10.8601,2.4083,0.7032,-9.4803,0.1966,-0.6075,-1.3798,-0.2855,-0.62,0.0405,12.75,2.75,41,83.56,-2.61,-164.77,48555,2015-10-07 16:27:01:538,0
3.0071,0.5363,-9.6726,2.4058,1.6062,-9.3703,0.2374,-0.7826,0.3681,-1.8791,0.1364,0.196,13.5,3,41,73.01,-6.41,-166.56,48655,2015-10-07 16:27:01:638,0
1.8962,2.1261,-7.604,2.8621,3.4743,-8.7125,-0.851,-1.5206,0.9553,-2.4906,0.8842,0.3174,14.25,-0.75,40,70.19,-16.68,-163.56,48755,2015-10-07 16:27:01:738,0
2.4708,5.1523,-8.9639,3.4197,5.0964,-7.6487,0.3344,-0.423,-0.0894,-1.9281,0.441,-0.1108,12.75,-8,39.5,73.8,-28.07,-157.36,48855,2015-10-07 16:27:01:838,0
2.4708,6.608,-6.1292,4.2637,6.6418,-5.8205,-1.2374,-0.1296,0.151,-1.6576,1.2932,0.6051,10,-16.25,37.25,80.82,-40.54,-147.36,48955,2015-10-07 16:27:01:938,0
5.4588,5.861,-4.0031,5.7252,7.1386,-3.5259,-0.8794,-0.7413,-2.067,-3.1489,2.2562,1.6895,7.5,-27.25,32,109.7,-46.71,-121.63,49055,2015-10-07 16:27:02:038,0
7.9487,6.2632,-0.6321,7.3339,6.5025,0.3191,0.729,-0.3735,-0.621,-1.7598,0.3132,0.8522,0.25,-34,24.25,120.32,-46.68,-111.71,49155,2015-10-07 16:27:02:138,0
8.2744,7.2592,-0.7278,7.6674,6.0305,1.007,0.6377,1.1813,-1.6825,-0.7265,0.2748,0.3217,-7.25,-40.25,11,144.62,-41.53,-87.51,49255,2015-10-07 16:27:02:238,0
7.7764,6.4356,0.4597,7.6911,6.0133,0.9256,0.0719,0.4539,-0.5555,0.1555,-0.0618,-0.0852,-12,-43.75,2.25,165.47,-37.95,-82.52,49354,2015-10-07 16:27:02:337,0
8.4084,6.2824,0.7853,7.4892,6.3295,0.1417,0.8535,0.0397,0.4367,1.2059,-0.3686,-0.4282,-14.75,-44.5,-2,178.8,-37.82,-83.14,49454,2015-10-07 16:27:02:437,0
9.4044,6.3015,2.3176,7.4555,6.2062,1.4384,1.9489,0.0954,0.8792,-2.5907,2.7867,0.4708,-14.25,-44.5,0.5,175.97,-40.55,-87.06,49554,2015-10-07 16:27:02:537,0
6.5505,4.9416,4.9799,6.383,5.6979,4.7919,0.1675,-0.7562,0.1881,-1.926,2.987,-0.6029,-12.5,-44,1.75,165.56,-36.65,-60.58,49655,2015-10-07 16:27:02:638,0
2.7581,3.0071,7.7381,4.464,4.7333,7.3375,-1.7059,-1.7262,0.4006,-2.5779,3.2682,-0.7244,-12.25,-41.25,-6,166.8,-28.86,-31.32,49755,2015-10-07 16:27:02:738,0
0.9577,1.2641,9.9982,1.3964,3.2436,9.1487,-0.4387,-1.9795,0.8494,-0.1236,2.0155,-0.6754,-7.75,-40.5,-18.5,173.28,-20.37,-13.37,49855,2015-10-07 16:27:02:838,0
-0.8236,2.2218,9.3087,-0.4629,2.9606,9.3376,-0.648,-0.7196,-0.3737,-0.1683,1.3018,-0.5816,2.25,-36.25,-28.75,178.56,-19,-5.2,49955,2015-10-07 16:27:02:938,0
-0.3256,2.0686,6.7038,-0.8958,2.9074,9.3228,0.5701,-0.8388,-2.6191,-0.5987,0.6115,-0.7308,12.25,-34.75,-31,200.09,-17.47,6.01,50055,2015-10-07 16:27:03:038,0
-2.1069,2.3367,8.7149,-1.5967,2.5132,9.3437,-0.2217,-0.1494,-0.5382,-0.1023,-0.2152,0.0021,18.25,-31.75,-31.75,209.82,-15.09,9.35,50155,2015-10-07 16:27:03:138,0
-2.1452,2.9497,8.5617,-1.6529,2.6855,9.2858,-0.5498,0.2642,-0.8008,0.2961,-0.2258,0.3132,20.75,-28.75,-32,218.97,-15.35,10.05,50255,2015-10-07 16:27:03:238,0
-1.4365,3.1029,7.8147,-1.2793,2.9818,9.2543,-0.138,0.0828,-1.1907,0.424,-0.2663,0.2216,20.25,-29,-31.5,221.72,-17.7,7.87,50355,2015-10-07 16:27:03:338,0
-1.3408,3.0454,8.6957,-1.1711,3.1529,9.2118,-0.1697,-0.1075,-0.5161,0.3345,-0.3196,0.1065,19.75,-29.5,-31.75,223.87,-18.75,7.25,50455,2015-10-07 16:27:03:438,0
-1.1875,3.0646,9.0788,-1.0097,3.2288,9.2047,-0.2545,-0.1451,0.1998,0.1001,-0.098,-0.1619,18.25,-30.25,-31,219.81,-19.29,6.13,50555,2015-10-07 16:27:03:538,0
-1.2258,2.873,9.2129,-0.9405,3.2705,9.1973,-0.2087,-0.2251,-0.1951,-0.098,0.0959,-0.0341,17,-30.75,-31.5,216.84,-19.48,5.84,50655,2015-10-07 16:27:03:638,0
-0.8428,3.0454,8.7724,-0.9609,3.2619,9.1982,0.0032,-0.3123,-0.2918,0.0043,-0.0192,0.0788,17.5,-30,-31,220.13,-19.43,5.96,50756,2015-10-07 16:27:03:739,0
-0.8428,2.9305,9.0405,-0.9575,3.2227,9.2124,0.0276,-0.2743,-0.1705,0.0469,-0.017,0.0916,17,-31.5,-31,216.38,-19.19,5.99,50855,2015-10-07 16:27:03:838,0
-0.9577,2.8922,9.1937,-0.9597,3.1849,9.2253,-0.0378,-0.3054,-0.1105,0.0618,0.0682,0.1534,16,-32.75,-31.5,211.55,-18.91,5.95,50954,2015-10-07 16:27:03:937,0
-0.8236,2.9305,9.481,-0.9108,3.1336,9.2478,0.025,-0.2202,0.2769,0.0426,0.1598,0.1087,17,-32.75,-31.5,211.63,-18.8,5.77,51054,2015-10-07 16:27:04:037,0
-0.5171,2.988,9.596,-0.8226,3.2076,9.2306,0.3055,-0.2197,0.3653,-0.2045,0.1385,0.1534,16.5,-32,-31,216.03,-19.22,5.01,51155,2015-10-07 16:27:04:138,0
-0.5746,3.0071,8.9447,-0.8731,3.2655,9.2057,0.2494,-0.2292,-0.1765,0.1704,0.0618,-0.0682,16,-32.25,-30.5,213.55,-19.23,5.24,51255,2015-10-07 16:27:04:238,0
-0.6129,3.0454,8.4659,-0.8305,3.415,9.1552,0.2455,-0.3389,-0.567,0.0234,-0.245,-0.0788,15.5,-30.75,-31.5,216.41,-20.38,5.18,51355,2015-10-07 16:27:04:338,0
-0.6321,3.122,8.8681,-0.6536,3.4534,9.1552,-0.0702,-0.2781,-0.3129,-0.1342,-0.2812,0.0341,17,-32,-30.75,215.68,-20.59,4.75,51455,2015-10-07 16:27:04:438,0
-0.6321,3.0263,9.098,-0.5818,3.2925,9.2191,-0.0503,-0.2663,-0.1211,-0.1065,-0.1342,-0.032,14.75,-31.75,-30.75,214.31,-20.45,3.92,51555,2015-10-07 16:27:04:538,0
-0.747,2.9688,8.983,-0.5882,3.1992,9.2515,-0.1588,-0.2304,-0.2684,-0.179,-0.0469,-0.0447,15.75,-31,-32,217.01,-19.14,3.64,51655,2015-10-07 16:27:04:638,0
-0.9385,2.8539,8.8298,-0.6403,3.0828,9.2874,-0.2983,-0.2289,-0.4576,-0.1555,0.0597,0.0341,15.75,-31.5,-32.5,216.22,-18.63,3.89,51755,2015-10-07 16:27:04:738,0
-1.2258,2.624,8.7532,-0.7625,2.9623,9.3174,-0.4634,-0.3383,-0.5642,-0.2599,0.1406,0.049,16.5,-31.75,-32.75,215.27,-17.58,4.68,51855,2015-10-07 16:27:04:838,0
-1.6089,2.0686,8.8873,-0.9534,2.7377,9.3684,-0.598,-0.5542,-0.4428,-0.2983,0.2471,0.375,15,-30.25,-32.25,210.6,-16.65,5.39,51955,2015-10-07 16:27:04:938,0
-1.5323,1.9537,9.0022,-1.082,2.4773,9.4267,-0.3354,-0.5045,-0.4628,-0.2173,0.1385,0.4836,15.5,-31.25,-34,211.2,-15.09,6.63,52055,2015-10-07 16:27:05:038,0
-1.9537,1.743,10.094,-1.117,2.2828,9.4716,-0.8992,-0.5274,0.6122,-0.2024,-0.1811,0.7286,16,-30.25,-33.75,209.7,-13.46,6.73,52155,2015-10-07 16:27:05:138,0
-0.4022,1.8962,10.5919,-0.2459,2.645,9.44,-0.0575,-0.6893,1.1386,0.6264,-0.6562,0.9183,15,-29.5,-33.75,214.69,-14.94,3.01,52255,2015-10-07 16:27:05:238,0
0.8045,2.6049,10.0365,0.26,3.0091,9.3299,0.5445,-0.4043,0.7065,0.4645,-0.017,0.9864,9.75,-31.25,-34,209.73,-17.87,-1.6,52355,2015-10-07 16:27:05:338,0
1.1492,3.122,8.983,0.5039,3.378,9.1927,0.6836,-0.0835,-0.6693,0.0298,0.6328,0.8735,6,-32.75,-33,204.74,-18.72,-2.31,52455,2015-10-07 16:27:05:438,0
0.2107,3.0646,9.0022,0.2614,3.2144,9.2612,0.3515,-0.2264,-0.2015,-0.179,0.4687,0.5049,1.5,-34.5,-31.5,192.75,-20.05,-2.77,52554,2015-10-07 16:27:05:537,0
-0.0958,2.6815,9.4619,0.139,3.0418,9.3219,-0.2524,-0.3931,0.2851,-0.2173,0.1534,0.5071,0,-33.5,-31,181.22,-18.07,-0.85,52654,2015-10-07 16:27:05:637,0
-0.2873,2.624,9.5193,0.2241,3.0781,9.3084,-0.4965,-0.463,0.1183,0.1491,0.0085,0.3281,-2,-32.75,-31.75,176.69,-18.29,-1.38,52754,2015-10-07 16:27:05:737,0
0,3.0071,9.2129,0.3696,3.2216,9.255,-0.3163,-0.267,0.1722,0.277,-0.0746,0.1747,-3.25,-32.5,-32,177.32,-18.7,-1.9,52854,2015-10-07 16:27:05:837,0
0.6512,2.8156,9.4044,0.4256,3.1871,9.2645,0.2011,-0.4253,0.1641,-0.3473,0.0043,0.1087,-3.5,-33.5,-31.5,175.73,-18.97,-2.63,52954,2015-10-07 16:27:05:937,0
-0.1915,2.9688,8.6383,0.3463,3.0996,9.2975,-0.5792,-0.0533,-1.0026,0.0511,0.3153,0.3324,-3.75,-32.5,-31.5,172.11,-18.43,-2.13,53054,2015-10-07 16:27:06:037,0
0.6704,2.49,9.2703,0.5015,3.1808,9.2629,0.2681,-0.7716,0.0481,0.1427,0.0107,0.6264,-4.5,-30.25,-31.75,172.81,-18.93,-3.1,53154,2015-10-07 16:27:06:137,0
1.0534,2.8922,8.4659,0.5882,3.2529,9.2327,0.4461,-0.514,-1.3606,0.0277,0.081,0.6051,-6.25,-31.25,-31.25,167.97,-19.37,-3.65,53254,2015-10-07 16:27:06:237,0
1.2641,2.9113,8.8298,0.6229,3.2861,9.2187,0.5454,-0.3556,-0.5038,0.1534,0.4261,0.8373,-7.25,-29.75,-30.75,164.69,-19.47,-3.9,53354,2015-10-07 16:27:06:337,0
1.4174,2.8539,8.9447,0.5582,3.2204,9.246,0.8501,-0.3531,-0.3065,-0.0724,0.4794,0.7968,-8.75,-29.75,-31.5,158.52,-19.67,-3.77,53454,2015-10-07 16:27:06:437,0
1.4365,2.8922,8.9639,0.498,3.1381,9.2776,0.9386,-0.2459,-0.3138,-0.0362,0.5923,0.8756,-9,-29.5,-31.75,157.15,-19.03,-3.39,53555,2015-10-07 16:27:06:538,0
1.0726,2.0686,9.1937,0.4252,2.9638,9.3384,0.6474,-0.8952,-0.1447,-0.0149,0.3068,1.0759,-10.25,-28,-33.25,152.9,-17.59,-2.61,53655,2015-10-07 16:27:06:638,0
1.494,2.7773,8.9447,0.549,2.8829,9.3572,0.9799,-0.3168,-0.3126,-0.0043,0.1747,0.8181,-11.25,-26.75,-34.25,147.25,-17.46,-2.85,53755,2015-10-07 16:27:06:738,0
1.2833,2.6624,8.9256,0.5915,2.8172,9.3746,0.6918,-0.1548,-0.4491,-0.0405,0.2961,0.8352,-12.5,-25.75,-35,145.67,-16.95,-3.43,53855,2015-10-07 16:27:06:838,0
1.245,2.9305,9.3087,0.5926,2.7416,9.397,0.6332,0.1123,-0.1458,-0.0852,0.2812,0.6839,-14,-25,-36.25,139.56,-16.25,-3.66,53955,2015-10-07 16:27:06:938,0
1.1684,3.0837,9.2129,0.4976,2.7436,9.4019,0.7473,0.1869,-0.0741,-0.0192,0.2578,0.4304,-15,-23.5,-36.5,139.51,-16.19,-3.55,54055,2015-10-07 16:27:07:038,0
0.8811,2.7773,10.1131,0.4438,2.7031,9.4163,0.6672,0.1317,0.6585,0.0341,0.2386,0.2791,-15.5,-22,-37,129.03,-16.18,-2.92,54155,2015-10-07 16:27:07:138,0
0.2298,2.0877,8.6191,0.4318,2.781,9.3941,-0.0679,-0.6741,-0.5643,0.2109,0.1087,0.049,-16.25,-21,-37.5,124.19,-16.09,-2.55,54255,2015-10-07 16:27:07:238,0
-0.7278,1.8962,9.232,0.2827,2.9333,9.3534,-0.7807,-0.7689,-0.2746,0.1342,0.2301,0.1087,-16.25,-20.75,-37.5,119.27,-16.75,-2.56,54355,2015-10-07 16:27:07:338,0
-0.498,1.9345,9.5002,0.1539,2.9327,9.3566,-0.8435,-0.8066,-0.2395,0.0064,0.0383,0.0682,-16.5,-21.75,-36.75,122.68,-17.44,-1.09,54455,2015-10-07 16:27:07:438,0
-0.0575,1.5514,9.347,0.0314,2.6638,9.4379,-0.0889,-1.1123,-0.0909,-0.1619,0.2834,0.3025,-16.5,-21.5,-37,123.44,-16.91,-0.79,54554,2015-10-07 16:27:07:537,0
-0.5171,1.8387,9.347,-0.3464,2.1661,9.5582,-0.1707,-0.3273,-0.2112,-0.6498,0.245,-0.049,-16.75,-20.75,-37.25,122.79,-14.03,1.34,54655,2015-10-07 16:27:07:638,0
-0.5938,1.2641,10.0173,-0.5778,1.3625,9.6943,-0.1117,0.1889,0.074,-0.5795,0.0405,-0.277,-16,-19.75,-38.5,123.57,-11.23,2.48,54755,2015-10-07 16:27:07:738,0
-0.7087,1.0726,10.1323,-0.3533,0.8898,9.7598,-0.3554,0.2211,0.2958,-0.0234,-0.2983,-0.1981,-15.25,-18.25,-40.25,129.42,-5.69,2.99,54854,2015-10-07 16:27:07:837,0
-0.5938,1.1875,9.979,-0.1754,0.9706,9.7569,-0.4184,0.2169,0.2221,0.1534,-0.3899,-0.3728,-15,-15,-41.5,126.93,-5.21,2.07,54954,2015-10-07 16:27:07:937,0
-0.8619,1.743,9.6534,0.0298,1.1486,9.7391,-0.8917,0.5944,-0.0857,0.0916,-0.4069,-0.5497,-15.75,-14.25,-41.5,120.26,-6.35,0.11,55054,2015-10-07 16:27:08:037,0
-0.0575,1.3791,9.8258,0.37,1.1252,9.7349,-0.3508,0.2347,-0.0048,-0.3515,-0.4155,-0.2599,-16.25,-15,-41.25,124.79,-6.4,-1.66,55154,2015-10-07 16:27:08:137,0
1.4365,1.2067,9.3661,0.8158,1.3752,9.6754,0.525,-0.0919,-0.022,0.6349,-0.2535,0.1513,-16.75,-17,-40,130.27,-6.71,-3.87,55255,2015-10-07 16:27:08:238,0
1.8387,2.0494,5.8419,1.2712,2.4783,9.4028,0.5675,-0.4289,-3.5609,1.453,-1.0717,-0.2748,-18,-18.5,-40,129.12,-8.06,-4.82,55355,2015-10-07 16:27:08:338,0
2.4708,2.0303,4.1372,2.8708,3.0464,8.8684,0.3087,-1.5716,-4.1374,-0.3132,-2.6397,-0.2727,-20,-21,-37,120.9,-14.64,-7.7,55455,2015-10-07 16:27:08:438,0
4.0414,0.1341,6.9145,4.8916,1.9211,8.2796,-1.0992,-1.5955,-1.4226,-1.6554,-1.6597,0.6498,-22.25,-24.25,-31.75,161.79,-14.69,-27.98,55555,2015-10-07 16:27:08:538,0
7.2975,-1.8771,5.5354,6.9292,0.4499,6.9249,-0.5702,-2.0971,-0.8915,-0.6115,-3.2469,1.7066,-27.75,-24.25,-28,170.61,-5.74,-40.23,55655,2015-10-07 16:27:08:638,0
8.3701,-4.5969,2.5283,8.793,-1.9278,3.8906,-0.3654,-3.2245,-1.7454,-0.2706,-3.0254,1.9239,-34.25,-20,-21.75,185.86,7.53,-60.75,55755,2015-10-07 16:27:08:738,0
11.3581,-8.5234,-0.0192,8.4801,-4.9115,0.3676,4.4103,-4.7036,-0.2335,-0.5007,-3.5878,3.3875,-40.5,-12.25,-11.25,189.15,23.48,-80.74,55854,2015-10-07 16:27:08:837,0
14.0588,-7.4124,1.0918,7.1104,-6.6007,-1.4294,6.9483,-0.8118,2.5212,-0.6434,-0.4836,2.0304,-43.25,-2.75,2.75,190.12,42.31,-101.37,55955,2015-10-07 16:27:08:938,0
10.5153,-5.114,-0.2873,6.4887,-7.2633,-1.1454,6.3442,0.7702,1.3178,0.6115,1.2528,0.4112,-39,10,17.25,179.46,45.94,-104.66,56054,2015-10-07 16:27:09:037,0
8.1211,-3.2178,-0.7278,6.6411,-7.2156,-0.0237,1.48,4.2468,-1.0106,-0.1534,-0.1768,-0.4943,-34.5,18,21.75,123.35,48.04,-91.83,56155,2015-10-07 16:27:09:138,0
8.9639,-5.6886,1.6855,7.2939,-6.546,-0.3463,1.9573,0.7616,2.0509,0.7478,-1.2868,-0.7627,-34.75,21.75,19.75,115.09,43.43,-92.46,56255,2015-10-07 16:27:09:238,0
9.9407,-6.7804,-0.2107,7.9928,-5.6715,-0.3455,1.9671,-0.994,0.2881,1.551,-1.5319,-1.8003,-34.25,21.25,18.75,113.57,41.87,-92.72,56354,2015-10-07 16:27:09:337,0
9.0022,-6.3973,-0.1341,8.737,-4.3821,-0.7948,0.2652,-2.0152,0.6607,0.3601,-0.4197,-1.4978,-33.25,19.5,21,87.68,29.02,-94.4,56454,2015-10-07 16:27:09:437,0
8.5234,-6.7421,0.6321,9.204,-3.2792,-0.8391,-0.8338,-3.4437,1.5286,0.1704,-0.0447,-1.4147,-30.75,18.5,23,74.3,21.44,-95.43,56554,2015-10-07 16:27:09:537,0
7.0677,-5.7269,0.747,9.4134,-2.6084,-0.8688,-2.2691,-3.2335,1.6732,0.4517,-0.2791,-0.7606,-31,14.25,24.25,79.02,16.42,-95.31,56655,2015-10-07 16:27:09:638,0
7.106,-5.5545,0,9.3935,-2.6212,-1.0303,-2.3131,-3.0124,0.9942,0.3728,-0.3622,0.098,-31,9,25.75,89.67,14.82,-95.9,56755,2015-10-07 16:27:09:738,0
9.481,-6.9911,-1.0918,9.132,-3.3609,-1.2175,0.4844,-3.9551,-0.1049,-0.0107,-0.2365,0.6605,-30,6.5,29,98.78,18.38,-97.1,56855,2015-10-07 16:27:09:838,0
7.604,-2.988,-1.4748,8.7205,-4.2999,-1.2782,-0.0365,-0.83,-0.4297,-0.3196,0.6498,1.2208,-28.75,8.75,31,101.57,23.98,-98.83,56955,2015-10-07 16:27:09:938,0
9.6917,-2.2984,-2.873,8.5221,-4.702,-1.1984,1.1696,2.4035,-1.6746,-0.0618,-0.6498,-0.1236,-27,12.25,31.75,98.89,28.96,-97.28,57055,2015-10-07 16:27:10:038,0
11.3389,-2.3559,-2.4517,8.5568,-4.4969,-1.6519,2.4353,2.7153,-0.6675,0.4836,-0.1555,-0.6626,-27.5,16.25,30.25,92.45,28.16,-100.72,57155,2015-10-07 16:27:10:138,0
9.3853,-2.873,-0.8619,8.9728,-3.5912,-1.6622,0.0588,0.4547,0.7979,0.441,-0.2429,-1.1526,-27,18,31,79.02,21.48,-100.49,57254,2015-10-07 16:27:10:237,0
9.7492,-2.2601,-1.6472,9.2999,-2.7648,-1.4276,0.2003,0.1982,-0.2771,1.3188,-0.196,-1.0951,-26.75,20.25,30,67.89,16.38,-98.73,57354,2015-10-07 16:27:10:337,0
12.6605,-0.2107,-2.0111,9.5965,-1.5545,-1.2891,2.7768,1.0756,-1.0093,0.4112,0.5539,-2.1135,-28.75,19.5,27.25,57.44,9.12,-97.65,57455,2015-10-07 16:27:10:438,0
14.461,2.0686,-2.0111,9.6553,1.5751,-0.6818,4.6908,0.7616,-0.8888,0.5561,0.5902,-3.5644,-33,17.25,24.5,49.01,-3.7,-94.84,57555,2015-10-07 16:27:10:538,0
13.1202,3.5434,0.0383,8.5083,4.813,-0.7842,4.612,-1.2696,0.8225,0.9822,0.2493,-3.8158,-36.75,7.75,21.75,41.39,-21.64,-94.41,57655,2015-10-07 16:27:10:638,0
9.5385,4.3096,-2.6815,6.1184,7.3466,-2.1825,2.7292,-2.9488,-0.2442,1.909,-0.3132,-4.0288,-37.5,-5,22.25,40.85,-29.39,-95.27,57755,2015-10-07 16:27:10:738,0
6.857,6.2441,-2.739,3.2465,8.5107,-3.633,2.4996,-1.9027,0.0704,1.7556,-1.0333,-3.7284,-32,-17.25,26.5,24.82,-48.52,-109.63,57855,2015-10-07 16:27:10:838,0
-0.0575,5.7078,-3.62,-0.0083,8.3148,-5.1994,-0.0492,-2.6071,1.5794,1.6277,-1.11,-3.1617,-21,-23.5,32.25,337.03,-60.94,-151.22,57955,2015-10-07 16:27:10:938,0
-3.486,6.0142,-5.3056,-3.0423,6.8493,-6.3247,-0.4436,-0.835,1.0192,1.7193,-1.9984,-2.3862,-8.25,-22.75,38.25,297.61,-49.23,161.36,58055,2015-10-07 16:27:11:038,0
-4.2138,5.2289,-5.114,-5.3815,4.915,-6.5615,1.1858,0.0124,1.2449,1.6149,-1.4424,-1.6107,-2,-19,40.5,286.15,-39.1,148.63,58155,2015-10-07 16:27:11:138,0
-5.3822,2.7581,-5.9185,-6.8782,3.0069,-6.3102,1.6195,-0.064,0.3411,1.7705,-1.8301,-1.6469,9.25,-12,43.25,279.29,-23.41,136.24,58255,2015-10-07 16:27:11:238,0
-7.5465,-0.5938,-5.2672,-8.004,1.0182,-5.574,0.6516,-1.1557,0.0849,2.0368,-1.5127,-1.404,18.25,-1,43,277.05,-5.96,124.85,58354,2015-10-07 16:27:11:337,0
-7.1635,-1.3599,-5.4396,-9.0585,-1.2389,-3.5467,1.8389,-0.2252,-1.7194,1.3358,-1.7705,-0.6456,25,8.25,38.25,280.55,5.18,114.7,58454,2015-10-07 16:27:11:437,0
-8.3893,-4.0989,-3.0646,-9.3655,-2.2485,-1.8446,0.9762,-1.8503,-1.2199,0.1001,-1.4914,-0.1193,31,20,29,296.52,13.26,101.14,58554,2015-10-07 16:27:11:537,0
-8.0637,-4.2904,-0.5746,-9.463,-2.5323,-0.4574,1.3993,-1.7581,-0.1173,0.2578,-1.6277,-0.1981,34,28,20,314.52,14.96,92.77,58654,2015-10-07 16:27:11:637,0
-8.3127,-2.9305,1.8962,-9.3849,-2.5197,1.3208,0.9489,-1.0364,0.3167,-0.588,-1.6064,0.4155,36.75,30,14,316.23,15.7,87.54,58754,2015-10-07 16:27:11:737,0
-8.102,-3.2944,2.9113,-9.2605,-2.3749,2.1849,0.7818,-0.7699,0.5541,0.7393,-0.0724,-0.1129,38.5,29.25,8.25,319.79,14.37,80.56,58855,2015-10-07 16:27:11:838,0
-8.4851,-2.3176,0.4788,-9.247,-2.1659,2.4437,-0.047,-0.1054,-1.061,0.6605,-0.1896,0.1832,40.25,28.5,4.75,323.07,12.76,75.2,58955,2015-10-07 16:27:11:938,0
-9.1171,-2.7773,2.7007,-9.1882,-2.0756,2.7277,0.071,-0.7017,-0.027,0.0128,-0.7436,0.1619,41.25,28.75,1.75,324.31,12.45,74.82,59055,2015-10-07 16:27:12:038,0
-8.4851,-2.6049,3.2944,-8.9907,-2.0174,3.3567,0.4641,-0.5645,-0.1805,0.1854,-0.6157,-0.0469,41.5,29,0.5,322.49,11.87,69.53,59155,2015-10-07 16:27:12:138,0
-8.4084,-2.4325,4.3287,-8.7764,-1.9814,3.9012,0.4965,-0.5279,0.2383,0.0192,-0.5177,0.2471,41.5,27.5,-2.25,322.01,11.66,66.03,59255,2015-10-07 16:27:12:238,0
-8.3318,-2.7198,4.2521,-8.5231,-1.9889,4.424,0.1913,-0.7309,-0.1719,-0.0533,-0.4389,0.049,41.5,26.75,-4,320.93,11.62,63.7,59354,2015-10-07 16:27:12:337,0
-8.2935,-2.4325,4.7118,-8.311,-1.9233,4.8372,0.0175,-0.5092,-0.1254,0.0874,-0.3814,-0.0064,42,26.25,-6.5,319.16,11.27,60.64,59455,2015-10-07 16:27:12:438,0
-7.6998,-2.1835,4.7118,-8.1306,-1.895,5.1451,0.4309,-0.2885,-0.4333,0.0554,-0.4431,0.0554,41,26.75,-8.25,322.09,11.26,58.39,59555,2015-10-07 16:27:12:538,0
-8.2744,-2.4517,5.0757,-7.9993,-1.872,5.3551,-0.2751,-0.5796,-0.2794,0.0107,-0.2983,0.0085,41.25,26.25,-9.75,320.75,11.14,57.22,59655,2015-10-07 16:27:12:638,0
-8.1211,-2.2984,4.6543,-7.8565,-1.7418,5.6046,-0.2646,-0.5567,-0.9503,0.2727,-0.4389,-0.0362,40.75,25.5,-11.25,320.49,10.49,55.22,59755,2015-10-07 16:27:12:738,0
-6.9719,-1.9154,4.7118,-7.5495,-1.5704,6.0588,0.3478,-0.5365,-1.3278,0.3196,-0.7904,0.0021,40,25.75,-12.75,322.43,9.22,51.25,59854,2015-10-07 16:27:12:837,0
-5.6503,-1.4365,8.351,-6.8557,-1.3723,6.8766,1.2053,-0.0643,1.4744,-0.0234,-1.1356,0.3579,40,24.75,-16.25,318.45,8.04,44.91,59954,2015-10-07 16:27:12:937,0
-3.3519,-1.0151,13.9055,-5.925,-1.3824,7.6911,2.6881,0.3864,6.1761,-0.1854,-0.196,0.081,39,23.5,-19,313.45,8.1,37.61,60054,2015-10-07 16:27:13:037,0
-6.2441,-1.3216,7.4316,-6.3632,-1.3001,7.3478,0.3107,-0.0981,0.3137,-0.1342,1.2783,-0.0128,38.5,23.5,-22,320.35,7.62,40.89,60155,2015-10-07 16:27:13:138,0
-6.9911,-1.8196,5.5545,-7.2743,-1.4256,6.4205,0.3407,-0.1833,-0.5403,-0.0533,1.4722,0.0682,39.5,23.5,-20,326.69,8.36,48.57,60254,2015-10-07 16:27:13:237,0
-7.3167,-1.9345,4.5394,-8.1774,-1.4777,5.2075,0.8607,-0.4568,-0.668,-0.1768,1.5872,-0.0192,42.25,23.25,-14.5,326.54,8.67,57.51,60354,2015-10-07 16:27:13:337,0
-9.481,-2.5091,1.1109,-9.1693,-1.642,3.0658,-0.6182,-1.7674,-1.84,-2.465,3.0807,0.9332,44.25,24.25,-7,335.84,9.64,71.51,60454,2015-10-07 16:27:13:437,0
-9.9982,-4.8459,-0.5555,-9.7105,-1.1064,0.8081,-0.6133,-4.4098,-1.0188,-0.2429,1.9132,1.8876,44.5,24.25,-3.25,336.91,9.38,77.26,60554,2015-10-07 16:27:13:537,0
-9.1363,-3.5626,-1.743,-9.6787,0.7701,-1.3784,0.5424,-4.3327,-0.3646,0.6562,0.8948,2.8144,45.25,19,9.25,338.23,6.48,85.24,60654,2015-10-07 16:27:13:637,0
-7.1635,-0.7278,-5.1523,-9.0614,2.8446,-2.4434,1.8979,-3.5724,-2.7089,0.2429,0.5795,3.1127,44,13,19.5,338.91,-4.5,98.11,60754,2015-10-07 16:27:13:737,0
-4.6352,3.7924,-7.2018,-7.3,5.7122,-3.2018,2.6648,-1.9198,-4,-0.6647,0.3963,3.3172,41.75,3.75,26.25,330.65,-16.86,105.09,60854,2015-10-07 16:27:13:837,0
-0.0766,7.0294,-5.0757,-5.0125,8.0125,-2.6164,5.2423,-0.6767,-2.1146,-0.9822,-0.6882,2.8762,38,-7.25,29.75,340.08,-35.63,113.68,60955,2015-10-07 16:27:13:938,0
2.5857,9.4044,-2.5091,-2.7231,9.2663,-1.7002,5.0981,0.2722,-1.2878,-1.3827,-0.6519,2.0922,33.25,-19.25,29.5,344.22,-65.66,120.59,61055,2015-10-07 16:27:14:038,0
4.4245,9.0788,0.0383,-0.2684,9.7975,-0.3273,4.6929,-0.7187,0.3656,-1.3529,-1.0248,1.7769,28,-30.75,26,352.47,-80.86,126.41,61154,2015-10-07 16:27:14:137,0
3.6775,8.5617,-1.0918,1.5968,9.6607,0.5405,2.1554,-1.1129,-1.1121,-0.4282,-0.9971,1.1079,19.5,-40.75,19.75,159.25,-83.25,-69.08,61254,2015-10-07 16:27:14:237,0
6.5888,7.9871,0.498,3.1473,9.2029,1.2536,3.2895,-1.1406,-0.9055,-2.2115,-1.2506,1.0823,13,-46.5,13,162.23,-74.74,-73.82,61355,2015-10-07 16:27:14:338,0
7.1635,7.7381,6.9719,4.3459,8.3689,2.6915,2.1625,-0.5902,5.639,-2.4352,-0.6093,-0.2194,7.25,-48,7.5,170.69,-65.67,-64.28,61454,2015-10-07 16:27:14:437,0
4.3862,8.351,16.4146,4.2142,7.3161,4.9885,-0.2387,0.9957,11.2921,-0.9502,0.6647,-0.6157,2.5,-46.75,-1.5,181.58,-53.96,-50.11,61554,2015-10-07 16:27:14:537,0
3.1795,4.9608,8.6957,2.9695,7.0547,6.1305,0.3802,-2.1785,2.583,0.9033,1.1505,-0.2514,-0.25,-46.75,-10.5,190.54,-45.38,-29.95,61655,2015-10-07 16:27:14:638,0
2.2793,3.486,5.9568,2.076,7.8803,5.4554,0.1385,-4.3315,0.4364,1.4104,1.4061,0.0746,0.25,-45.5,-14.75,196.92,-49.09,-22.67,61755,2015-10-07 16:27:14:738,0
2.1452,4.8076,5.4971,1.8112,8.573,4.4039,0.334,-3.7654,1.0932,2.3287,1.3465,0.7244,3.5,-45.25,-12.25,207.49,-58.36,-20.29,61855,2015-10-07 16:27:14:838,0
4.7118,5.1906,5.2481,2.067,9.0798,3.075,2.6448,-3.8892,2.1731,2.399,2.7974,1.1441,5.75,-47,-5.25,203.4,-66.1,-29.4,61954,2015-10-07 16:27:14:937,0
9.8258,5.0182,4.0414,3.1001,9.1861,1.4748,5.2846,-3.9493,2.5632,2.8847,3.3407,1.1164,2.75,-48.5,5.75,174.09,-69.84,-46.85,62054,2015-10-07 16:27:15:037,0
12.2009,4.9991,1.6089,4.3984,8.7502,0.5087,7.8024,-3.7511,1.1002,2.595,3.5132,0.3579,-2.75,-43.25,16.25,138.25,-67.09,-73.95,62154,2015-10-07 16:27:15:137,0
15.3229,4.5394,1.1875,5.4033,8.1838,0.0115,9.5105,-3.401,2.4102,3.6006,3.0488,-0.2493,-14.75,-35.5,23.5,104.78,-58.84,-86.48,62255,2015-10-07 16:27:15:238,0
13.0628,3.5626,-3.0646,6.0921,7.5656,-1.3485,6.8531,-3.8246,-1.4784,3.8243,2.7249,-1.0504,-26.25,-28.25,25,74.2,-52.66,-97.38,62355,2015-10-07 16:27:15:338,0
10.1323,2.4517,-5.2098,6.2464,7.092,-2.6186,5.1446,-3.9789,-1.154,3.1276,2.0048,-1.338,-37.25,-20.25,22.25,25.63,-47.55,-109.39,62455,2015-10-07 16:27:15:438,0
9.7683,1.1301,-5.9376,6.3117,7.0628,-2.5395,3.7688,-5.0471,-5.3901,-1.9111,3.2597,-1.5958,-42,-13.75,18.25,345.28,-42.35,-119.88,62555,2015-10-07 16:27:15:538,0
4.4628,-2.1069,-15.955,6.1004,7.2634,-2.4898,-1.6376,-9.3703,-13.4652,1.6128,0.8032,-0.8011,-43.25,-14.5,13.25,357.2,-46.07,-111.92,62655,2015-10-07 16:27:15:638,0
6.5505,-1.7621,-10.1706,6.0032,6.3332,-4.4747,0.5473,-8.0953,-5.6959,-1.8216,-1.9984,2.3841,-39.5,-21.25,3.5,290.88,-42.41,-125.67,62755,2015-10-07 16:27:15:738,0
13.3309,0.8045,-4.9608,6.8026,5.5347,-4.3888,6.5375,-4.7929,-1.4787,-3.4323,-1.6085,1.3188,-38.5,-23.25,0.5,268.88,-35.7,-126.11,62855,2015-10-07 16:27:15:838,0
12.9287,0.9768,-3.8882,7.1779,5.6226,-3.6102,6.7719,-4.1331,0.8155,-4.2888,-2.2882,1.0397,-41.75,-18.75,3.5,289.25,-34.54,-119.95,62955,2015-10-07 16:27:15:938,0
16.9126,1.4748,0.3448,7.444,5.5679,-3.1234,8.8173,-4.2528,3.1036,-3.5857,-3.2299,0.8629,-43.5,-13.25,6.25,319.32,-34.94,-113.24,63055,2015-10-07 16:27:16:038,0
18.0619,2.2218,3.3902,7.3705,5.6809,-3.0941,10.2311,-3.9848,6.3178,-3.0019,-3.4749,-0.4368,-44,-10.75,12,339.77,-34.58,-112.96,63155,2015-10-07 16:27:16:138,0
14.5376,0.7087,1.1684,6.6849,6.5185,-2.9985,7.8527,-5.8099,4.1669,-2.6759,-3.3066,-0.6328,-35.75,-18.5,24,6.67,-36.63,-112.99,63255,2015-10-07 16:27:16:238,0
10.4196,0.6704,0.5555,5.9928,7.3724,-2.4299,4.1012,-7.1043,2.5257,-2.6504,-2.5652,-0.6477,-25.25,-28.5,28.25,53.12,-41.66,-114.16,63355,2015-10-07 16:27:16:338,0
10.6111,2.6432,4.7693,5.538,7.9575,-1.4763,4.7284,-5.2185,7.2224,-2.8357,-1.4104,-1.0035,-15,-36,25,103.26,-52.23,-108.9,63455,2015-10-07 16:27:16:438,0
-8.5617,2.2793,29.7839,4.0286,8.5669,2.5592,-12.406,-6.1659,26.6105,-3.3236,-1.1633,-0.5795,-8,-42.5,16.5,131.08,-60.85,-81.8,63555,2015-10-07 16:27:16:538,0
5.612,4.2138,12.718,3.1749,7.9099,4.8501,1.9676,-2.0785,12.6231,1.6469,3.4621,0.5859,-3,-48,3.75,170.84,-53.6,-36.09,63655,2015-10-07 16:27:16:638,0
7.8721,1.494,2.8156,2.4926,8.5934,4.0137,5.4154,-5.1357,0.5238,2.1028,3.5729,0.4666,-3,-46.75,2.5,170.92,-58.08,-30.81,63755,2015-10-07 16:27:16:738,0
8.2361,0.5171,2.7198,2.7859,8.8162,3.2686,5.7183,-8.1075,-1.6022,2.1284,2.8613,2.0048,-6.75,-45.25,11,153.75,-63.77,-34.86,63854,2015-10-07 16:27:16:837,0
10.6877,-0.249,3.5434,4.303,8.2624,3.0638,6.9785,-8.6455,0.3072,1.8216,2.7739,2.7271,-16.25,-41.5,16.5,128.9,-60.66,-50.38,63955,2015-10-07 16:27:16:938,0
16.0507,-1.1492,-4.4245,6.7719,6.6003,2.5978,8.302,-7.3664,-4.3408,2.7186,0.686,3.3684,-28.75,-33.75,15.5,108.18,-47.68,-63.62,64055,2015-10-07 16:27:17:038,0
14.6334,-1.6472,-9.3278,8.7651,4.3269,0.788,5.8683,-5.9741,-10.1159,1.8173,0.3835,2.1327,-40.75,-17,14,82.85,-26.18,-84.86,64155,2015-10-07 16:27:17:138,0
11.7986,-6.7421,-1.3408,9.7346,1.1861,-0.0428,2.0641,-7.9282,-1.2979,0.2067,-0.5305,3.5622,-45,-1.25,13.5,51.5,-15.82,-89.76,64255,2015-10-07 16:27:17:238,0
14.9973,-8.734,-1.2641,9.5504,-2.1709,-0.4985,5.4469,-6.5632,-0.7657,0.0937,-0.1129,3.5601,-43.75,13.25,13.25,76.87,2.9,-92.07,64355,2015-10-07 16:27:17:338,0
15.955,-10.2089,0.7853,7.9885,-5.6274,-0.8284,7.9664,-4.5815,1.6137,-1.6554,-0.4645,3.183,-37.25,27,14,89.06,35.02,-95.92,64455,2015-10-07 16:27:17:438,0
12.8521,-3.8307,3.8882,6.7091,-6.7401,-2.3934,6.1429,2.9094,6.2816,-3.8712,0.3665,1.4509,-26.5,35.5,17.75,60.78,42.77,-103.4,64555,2015-10-07 16:27:17:538,0
5.0182,8.9447,9.7875,6.8211,-5.9553,-3.7653,-1.8029,14.9,13.5528,-2.4522,0.98,1.2336,-18.25,35,25.75,52.92,37.35,-118.84,64661,2015-10-07 16:27:17:644,0
12.4307,5.8993,4.616,7.7519,-5.0205,-3.2974,4.6788,10.9198,7.9134,0.1875,0.6498,-2.3883,-15.5,30,32.75,63.73,30.79,-113.04,64754,2015-10-07 16:27:17:737,0
14.5567,-3.237,3.6009,9.3117,-2.473,-1.8297,5.2451,-0.764,5.4306,2.1348,0.8096,-3.8584,-16,29.75,32.5,51.3,14.61,-101.12,64856,2015-10-07 16:27:17:839,0
15.1314,-8.4084,0.498,9.7845,-0.1725,-0.6364,5.3469,-8.236,1.1344,3.656,-0.2919,-2.9295,-24.25,27.75,29.25,44.83,1.01,-93.72,64955,2015-10-07 16:27:17:938,0
15.6102,-10.0748,5.0949,9.7253,0.9891,-0.781,6.1375,-12.004,4.822,2.857,-0.6882,-1.9835,-33,26.5,22.75,33.74,-5.79,-94.59,65055,2015-10-07 16:27:18:038,0
4.616,-7.9679,-2.3942,9.6133,1.6739,-0.9767,-4.3142,-10.3324,-1.6564,0.5049,0.8117,-1.6831,-38.5,23.5,18.75,29.53,-7.98,-96.44,65155,2015-10-07 16:27:18:138,0
5.1715,-4.7118,0.5363,9.4842,2.449,-0.4713,-4.4154,-7.1348,1.0363,-0.2876,0.3792,-0.4389,-41.25,21.25,16.75,25.12,-13.05,-94.07,65255,2015-10-07 16:27:18:238,0
5.4396,-4.0989,-0.3639,9.6647,1.6237,0.3567,-2.883,-5.2125,-0.3994,-1.5446,0.8735,1.9388,-44.75,13.5,13.5,26.77,-14.46,-91.63,65355,2015-10-07 16:27:18:338,0
12.5456,-4.9416,-1.0151,9.7315,-1.0862,0.5377,2.9186,-3.1043,-1.3542,-1.1782,-0.6029,3.4365,-45,13.25,12.5,51.88,0.43,-85.94,65454,2015-10-07 16:27:18:437,0
16.5679,-3.0837,2.5091,8.4697,-4.8692,-0.8514,8.0024,2.1111,3.4754,-1.5936,-0.9225,3.1404,-38.25,25,13.75,74.94,19.65,-90.96,65555,2015-10-07 16:27:18:538,0
10.8793,-2.7581,1.9537,8.0053,-5.5513,-1.1264,2.8739,2.7931,3.0801,0.5838,-0.3814,0.8948,-32.75,31.25,16.5,60.2,32.95,-98.24,65655,2015-10-07 16:27:18:638,0
10.094,-2.0111,-0.6321,7.7235,-5.926,-1.1833,2.3704,3.9149,0.5512,1.061,-1.2741,0.5113,-22.5,38,22.25,52.88,34.48,-98.01,65755,2015-10-07 16:27:18:738,0
12.1434,-2.9305,-0.996,7.8637,-5.6587,-1.5208,4.2797,2.7282,0.5248,-0.8458,0.0575,-0.6519,-18,41.25,23.25,44.33,36.66,-100.33,65855,2015-10-07 16:27:18:838,0
12.1242,-4.3862,0.6512,8.6431,-4.345,-1.6087,2.8487,0.1135,2.4983,-1.2442,1.4999,-2.2115,-15.25,42.25,22.75,36.19,29.99,-101.44,65955,2015-10-07 16:27:18:938,0
9.6917,-4.6543,1.9537,9.5278,-2.2186,-0.6849,0.0482,-2.6314,2.3155,1.3785,0.2237,-2.399,-16.75,42,26,33.32,22.44,-98.52,66055,2015-10-07 16:27:19:038,0
8.8873,-4.7884,-0.7278,9.7918,-0.2381,-0.4845,-0.847,-4.4736,-0.6838,1.8813,-0.0234,-2.2839,-25.5,34.75,26,38.49,13.08,-94.11,66155,2015-10-07 16:27:19:138,0
7.4124,-4.2329,-0.8428,9.6795,1.1548,-1.0692,-2.1905,-5.5027,0.0158,1.6448,-0.539,-1.649,-33.25,31.25,22,29.57,-4.65,-94.85,66254,2015-10-07 16:27:19:237,0
6.7612,-4.0989,-1.5706,9.5459,1.5762,-1.6005,-2.9344,-5.6168,-0.0834,1.6362,-0.1108,-0.5092,-39.25,28,18.75,22.99,-8.07,-97.58,66355,2015-10-07 16:27:19:338,0
5.8419,-3.5817,-3.2753,9.5611,0.9746,-1.9511,-3.5407,-4.3534,-1.5206,0.9374,0.2684,0.7159,-41.75,24,15.75,14.27,-7.78,-101.15,66455,2015-10-07 16:27:19:438,0
7.9296,-4.2329,-3.6583,9.6556,-0.5082,-1.6376,-1.7072,-3.3416,-2.0748,-0.5667,0.7201,1.8067,-42.75,22.75,12.75,10.6,-5.7,-101.53,66554,2015-10-07 16:27:19:537,0
11.4922,-5.5737,-2.5666,9.0104,-3.555,-1.5314,2.8074,-1.8463,-0.6138,-1.6405,0.5092,3.2299,-40.75,25.25,10,11.8,11.03,-99.03,66655,2015-10-07 16:27:19:638,0
14.1162,-4.1372,-2.1069,7.9899,-5.313,-2.0257,6.1263,1.1758,-0.0812,-0.8948,-0.228,2.073,-35,33.75,9.75,10.69,29.92,-102.57,66754,2015-10-07 16:27:19:737,0
8.8298,-2.1261,-0.5938,7.8514,-5.2964,-2.5443,0.6746,2.9792,2.15,-2.2477,1.0248,-0.2748,-25.75,42.5,13.25,13.05,34.23,-107.67,66855,2015-10-07 16:27:19:838,0
8.6574,-3.7158,0.5938,8.3228,-4.3583,-2.812,0.3347,0.6425,3.4058,-0.9246,-0.2471,-0.3814,-17.75,46.25,19.25,19.96,32.69,-107.96,66954,2015-10-07 16:27:19:937,0
12.3158,-4.0989,1.8196,8.4449,-4.0377,-2.9243,3.8709,-0.0612,4.7439,0.8629,-0.4346,-1.2144,-18,42.75,25.5,28.68,26.39,-108.67,67055,2015-10-07 16:27:20:038,0
11.6646,-5.8227,0.6321,9.2,-2.817,-1.8961,2.4646,-3.0057,2.5282,1.5319,0.7585,-2.4863,-18,40.75,28.25,37.73,24.31,-109.1,67155,2015-10-07 16:27:20:138,0
9.1937,-6.359,-1.2067,9.7606,-0.6115,-0.7254,-0.5669,-5.7475,-0.4813,1.7066,0.5518,-2.6206,-22.25,39.25,27.25,35.46,10.29,-96.95,67255,2015-10-07 16:27:20:238,0
7.3167,-5.2289,-1.5706,9.784,0.6118,-0.2649,-2.4673,-5.8407,-1.3057,1.3827,0.3643,-1.4999,-31.75,36,20.25,27.01,-1.51,-92.15,67355,2015-10-07 16:27:20:338,0
5.5545,-4.4628,-2.4517,9.7288,1.1564,-0.4291,-4.2479,-5.6089,-2.107,0.0021,-0.4858,0.1257,-39.75,29.75,12.25,17.39,-6.32,-91.81,67455,2015-10-07 16:27:20:438,0
8.0254,-6.5122,-3.8307,9.7006,-0.6153,-1.2999,-1.8721,-6.03,-2.4013,-1.4083,-0.473,2.2413,-44.5,24,8.5,10.48,-4.43,-95.09,67554,2015-10-07 16:27:20:537,0
10.4579,-6.4356,-2.1835,8.878,-3.6942,-1.9247,2.0587,-2.9712,-0.0481,-3.2299,0.0788,4.2291,-44.5,24.5,9.25,5.08,15.7,-100.21,67655,2015-10-07 16:27:20:638,0
13.3118,-5.3439,-0.2107,7.3064,-5.7965,-3.031,6.2352,-0.0262,2.6479,-2.2008,-0.6008,2.563,-38.5,32,15,24.26,32.81,-108.51,67755,2015-10-07 16:27:20:738,0
8.8681,-3.2944,-0.249,6.7801,-5.9661,-3.8218,1.7607,2.672,3.5606,-1.3593,0.8714,0.2109,-24.75,38,25.25,36.39,38.2,-116.32,67855,2015-10-07 16:27:20:838,0
7.2401,-3.1412,-0.6512,7.1362,-5.4962,-3.8778,0.1039,2.355,3.2266,-1.0951,0.5774,0.1342,-15.75,36.5,34.25,59.58,34.88,-118.8,67955,2015-10-07 16:27:20:938,0
8.6957,-2.49,-1.9537,7.4498,-5.4136,-3.3711,1.2863,2.8827,1.1176,0.5369,0.6136,-0.3878,-14.5,33,38.5,69.14,33.63,-116.2,68055,2015-10-07 16:27:21:038,0
8.849,-3.3902,-3.4668,8.2012,-4.7749,-2.472,0.9784,1.6341,-0.9967,0.2365,0.9289,-0.8565,-17.5,30.25,38.75,71.76,32.96,-112.42,68154,2015-10-07 16:27:21:137,0
8.6,-3.9265,-3.3136,8.7067,-4.168,-1.7293,-0.0935,0.5136,-1.4506,0.5774,0.7627,-0.7265,-20.25,30.75,36.5,68.77,29.14,-106.77,68254,2015-10-07 16:27:21:237,0
9.9216,-4.5203,-2.873,8.9034,-3.8586,-1.4178,0.6136,-0.2145,-1.2362,0.1619,0.4517,-0.3963,-25.5,29.5,33.5,62.54,23.75,-99.73,68355,2015-10-07 16:27:21:338,0
8.6574,-4.1946,-1.6664,9.1991,-3.2345,-1.0415,-1.0116,-1.3735,-0.5415,-0.2834,0.7116,-0.9119,-29.25,29.75,31.25,63.44,22.5,-98.37,68454,2015-10-07 16:27:21:437,0
7.7381,-4.5203,-0.8811,9.4471,-2.5906,-0.4605,-1.5558,-1.968,-0.5546,-0.0341,0.3473,-0.3878,-32.75,28,28.25,55.91,15.78,-93.59,68565,2015-10-07 16:27:21:548,0
9.0405,-5.1332,-1.6472,9.4466,-2.5965,-0.437,-0.3678,-2.5367,-1.2677,-0.6924,0.2109,-0.1491,-35,26.25,27.75,59.49,15.23,-92.53,68655,2015-10-07 16:27:21:638,0
7.8338,-5.2672,0.4597,9.312,-3.0385,-0.4737,-1.5288,-2.3868,0.9229,-1.2293,0.2301,0.6946,-38.75,24,25.5,64.45,16.62,-92.86,68755,2015-10-07 16:27:21:738,0
9.3087,-5.2098,0.3448,8.9284,-3.9852,-0.757,-0.0594,-1.4474,1.2455,-0.3665,-0.5305,1.0227,-40.25,21.75,25.5,77.36,21.48,-93.87,68854,2015-10-07 16:27:21:837,0
9.9599,-4.9416,-0.3448,8.5602,-4.6453,-1.147,1.3669,-0.312,0.8541,-1.1739,0.3409,0.6115,-39.5,19,26.75,96.05,27.27,-96.94,68955,2015-10-07 16:27:21:938,0
8.8681,-5.1332,0.0383,8.3624,-4.9535,-1.3048,0.4941,-0.2011,1.3575,-1.2975,0.3579,0.5625,-37.25,22.5,29,92.18,30.34,-98.87,69055,2015-10-07 16:27:22:038,0
9.1746,-4.7501,-0.1532,8.0194,-5.3917,-1.6701,1.3648,0.7386,1.4898,-1.4296,0.1364,0.9033,-36,23,30.5,98.99,33.35,-101.76,69155,2015-10-07 16:27:22:138,0
9.845,-5.0566,0.2682,7.8197,-5.5204,-2.1323,2.0252,0.4639,2.4004,-2.0155,0.7542,0.4794,-34.75,19.5,32.5,108.03,34.26,-105.25,69255,2015-10-07 16:27:22:238,0
8.4084,-3.8882,-0.2298,8.0772,-5.1466,-2.1074,0.3312,1.2584,1.8776,-1.4061,0.8799,-0.2216,-35,16.25,34.5,109.35,31.66,-104.62,69355,2015-10-07 16:27:22:338,0
8.1403,-4.0414,-1.6281,8.4998,-4.4743,-1.9758,-0.3596,0.4329,0.3478,-0.9438,0.7116,-0.5774,-36.5,10.25,33.5,114.84,28.13,-103.48,69457,2015-10-07 16:27:22:440,0
7.9871,-3.9456,-1.743,8.7637,-4.0311,-1.7659,-0.7766,0.0855,0.023,-0.8437,0.6029,-0.1342,-39.75,4.25,31.5,116.2,25.65,-102.26,69554,2015-10-07 16:27:22:537,0
7.6423,-3.8116,-1.8771,8.8528,-3.8864,-1.6412,-1.2105,0.0748,-0.2358,-0.3665,0.3132,-0.1044,-41.5,-0.25,29,126.77,23.81,-100.97,69654,2015-10-07 16:27:22:637,0
8.6766,-4.1563,-1.8387,8.7489,-4.1071,-1.6608,-0.3413,0.0607,-0.4526,-0.5007,0.1854,0.4389,-43.5,-0.75,26.5,136.71,23.67,-100.5,69755,2015-10-07 16:27:22:738,0
9.1937,-3.9456,-1.743,8.5824,-4.4146,-1.739,0.554,0.3577,0.047,-0.1406,-0.0149,0.4858,-43.5,0,26.25,140.1,25.23,-100.96,69855,2015-10-07 16:27:22:838,0
8.9639,-3.7924,-1.6281,8.4873,-4.5817,-1.7734,0.4529,0.7825,0.0642,-0.1683,-0.0298,0.2876,-43.5,0.75,25.5,143.05,27.21,-101.6,69955,2015-10-07 16:27:22:938,0
9.2129,-3.7924,-1.4557,8.448,-4.6437,-1.7993,0.6883,0.7938,0.4202,0.1854,-0.0021,0.1044,-44,0.75,26,143.44,28.12,-102.01,70054,2015-10-07 16:27:23:037,0
9.1171,-3.9265,-1.6281,8.5219,-4.5303,-1.7392,0.5186,0.6229,0.0728,0.3324,-0.1513,-0.2003,-43.75,1.25,26.25,142.67,27.78,-101.72,70155,2015-10-07 16:27:23:138,0
8.9447,-4.118,-1.6472,8.6619,-4.2841,-1.6699,0.2829,0.1852,0.0419,0.3068,0.0298,-0.2684,-43.25,1.25,26.25,141.38,27.08,-101.35,70255,2015-10-07 16:27:23:238,0
8.7724,-4.3862,-1.4174,8.8497,-3.909,-1.6041,-0.0199,-0.458,0.2059,0.0703,0.0447,-0.4325,-44,1.25,26.75,134.29,23.49,-100.27,70354,2015-10-07 16:27:23:337,0
8.351,-4.4819,-1.3408,9.0325,-3.5071,-1.5112,-0.6816,-0.9748,0.1704,-0.0256,0.0639,-0.4666,-42.75,0.25,27.25,130.63,20.95,-99.5,70454,2015-10-07 16:27:23:437,0
8.0062,-4.3862,-1.4365,9.1241,-3.2872,-1.4541,-1.119,-1.138,0.07,0.1044,0.0724,-0.0277,-43.25,-0.5,27.5,126.96,19.59,-99.06,70555,2015-10-07 16:27:23:538,0
8.4084,-4.2904,-1.6472,9.0526,-3.5028,-1.3966,-0.6549,-0.8125,-0.258,0.0937,-0.0852,0.1768,-44,-2.75,27,134.14,20.5,-98.67,70654,2015-10-07 16:27:23:637,0
8.5808,-4.1946,-1.8004,8.926,-3.8109,-1.4048,-0.3634,-0.4215,-0.4092,-0.2045,-0.017,0.3281,-44.5,-2.5,26.75,135.76,22.87,-98.94,70754,2015-10-07 16:27:23:737,0
9.2512,-4.367,-1.5514,8.7445,-4.1655,-1.534,0.3918,-0.1632,-0.1132,-0.2003,-0.2045,0.4368,-43.5,-2,26.75,138.1,23.58,-99.21,70854,2015-10-07 16:27:23:837,0
9.6917,-4.5394,-2.1261,8.5675,-4.4527,-1.7152,1.1337,-0.0587,-0.4709,-0.1491,-0.017,0.1513,-43.75,-1.5,27,141.75,26.44,-100.71,70955,2015-10-07 16:27:23:938,0
8.9639,-4.1946,-2.4708,8.5462,-4.4184,-1.9002,0.3376,0.2641,-0.5658,-0.375,-0.1129,-0.0767,-43.5,0.5,26.75,140.51,26.78,-102.54,71055,2015-10-07 16:27:24:038,0
7.8721,-3.6392,-2.6624,8.6357,-4.1437,-2.1033,-0.7726,0.4733,-0.5346,-0.4687,0.1683,-0.2514,-43,1.25,27,140.45,25,-103.69,71155,2015-10-07 16:27:24:138,0
7.4699,-3.984,-2.3367,8.6908,-3.8842,-2.3564,-1.2183,-0.0579,-0.0406,-0.6434,0.0107,-0.1534,-43,-2,26.75,144.91,23.33,-105.17,71254,2015-10-07 16:27:24:237,0
7.5657,-3.9073,-1.6089,8.6562,-3.8684,-2.5053,-1.2307,-0.1044,1.0026,-0.5326,0.1364,0.3089,-42,-3,26.25,148.29,23.23,-106.14,71355,2015-10-07 16:27:24:338,0
7.604,-3.6775,-2.873,8.6052,-3.989,-2.4918,-1.2502,0.3881,-0.3621,-0.5156,0.588,0.2706,-42.75,-2.5,25.75,148.93,23.8,-106.23,71455,2015-10-07 16:27:24:438,0
6.7804,-3.2944,-2.49,8.5747,-4.183,-2.2689,-1.7369,0.9077,-0.1636,-0.3665,0.6924,0.5859,-43,-4.75,23.75,153.87,25.25,-104.82,71555,2015-10-07 16:27:24:538,0
8.9064,-5.0949,-0.9768,8.444,-4.5812,-1.9702,-0.1313,-0.054,0.6486,-0.7393,0.9225,0.8203,-45.25,-3,21,158.03,27.85,-103.13,71655,2015-10-07 16:27:24:638,0
11.1474,-3.869,-1.0534,7.9213,-5.5931,-1.4628,3.8198,0.5366,0.4285,0.2067,0.115,1.0376,-45.25,-2,19,159.96,32.34,-101.14,71755,2015-10-07 16:27:24:738,0
10.8601,-3.7541,-0.5746,8.0328,-5.5138,-1.1151,2.9764,1.8692,0.7063,0.1214,0.0405,-0.8884,-45.5,0.5,16.25,162.93,34.77,-100.46,71855,2015-10-07 16:27:24:838,0
9.5193,-5.4013,-0.8811,8.7518,-4.2784,-1.128,0.852,-0.9505,0.2315,-0.6988,0.0937,-1.6107,-45.75,4.25,14.5,155.26,29.06,-97.31,71955,2015-10-07 16:27:24:938,0
7.5465,-5.8419,-0.2107,9.1245,-3.3849,-1.2071,-1.5779,-2.457,0.9965,-1.6256,0.5859,-0.8799,-46.5,0.75,13.75,154.9,25.87,-97.34,72054,2015-10-07 16:27:25:037,0
6.5697,-4.9416,1.3791,9.1675,-3.3109,-1.0798,-2.4438,-1.5584,2.4054,-0.6796,0.2301,0.7201,-45.25,-6.75,11.75,163.28,19.73,-96.72,72154,2015-10-07 16:27:25:137,0
8.4467,-4.2713,-0.0575,8.756,-4.2491,-1.2036,-0.3092,-0.0222,1.1461,-0.2131,-0.1449,0.9758,-46,-10.25,8.25,175.84,23.19,-97.41,72254,2015-10-07 16:27:25:237,0
9.7492,-4.4245,-1.6281,8.3443,-4.9944,-1.2647,1.4049,0.5699,-0.3633,-0.848,0.3984,0.6498,-46.75,-8.25,7,179.65,28.97,-98.25,72355,2015-10-07 16:27:25:338,0
12.9095,-8.3127,-2.8539,8.1623,-5.2121,-1.5432,4.7472,-3.1006,-1.3107,-1.436,-0.1236,0.9332,-46.5,-3,7,183.5,32.11,-100.71,72454,2015-10-07 16:27:25:437,0
5.7461,1.3024,-0.6129,7.6872,-5.8022,-1.8473,-1.9411,7.1046,1.2344,0.9161,-0.4794,0.2024,-46.25,0.5,5,192.59,36.27,-103.51,72554,2015-10-07 16:27:25:537,0
9.0405,-4.2138,-2.0686,8.0598,-5.0219,-2.4474,1.1722,0.9997,-0.0809,-1.926,0.4346,-1.0631,-46.5,3.75,3.5,200.7,33.31,-105.16,72655,2015-10-07 16:27:25:638,0
7.2401,-5.1332,1.2258,8.7393,-3.8846,-2.1692,-1.4609,-1.0953,3.3567,-1.2783,1.2123,-0.9758,-47,5.75,6,210.54,28.9,-107.16,72755,2015-10-07 16:27:25:738,0
7.4891,-3.735,-1.5131,9.0238,-3.4973,-1.5846,-1.6305,-0.3526,0.3779,1.4722,0.032,-0.1917,-47,-0.5,3.75,198.48,21.41,-101.91,72855,2015-10-07 16:27:25:838,0
7.4508,-3.371,-2.873,8.9683,-3.7913,-1.1689,-1.5175,0.4203,-1.7042,1.4637,-0.4431,0.2557,-46.25,-3.75,1.5,190.81,22.16,-97.49,72955,2015-10-07 16:27:25:938,0
8.3318,-4.1563,-1.3408,8.7229,-4.3185,-1.1967,-0.3911,0.1622,-0.1441,0.8245,-0.6626,0.7308,-46.5,-4.5,2.5,190.94,22.74,-97.43,73055,2015-10-07 16:27:26:038,0
10.8026,-3.1987,-0.1149,8.1527,-5.2867,-1.3246,2.65,2.0881,1.2097,1.2506,-1.127,1.4189,-47.25,-2.5,4.25,187.63,31.29,-99.12,73155,2015-10-07 16:27:26:138,0
9.1554,-3.371,0.4597,8.2192,-5.1627,-1.4004,1.032,0.8149,2.2049,1.0184,-1.3465,-1.3124,-46,3,7.5,178.7,33.71,-99.21,73256,2015-10-07 16:27:26:239,0
10.3813,-5.6886,0.1724,8.6746,-4.3475,-1.4217,1.8216,-1.5518,1.7665,1.5958,-1.2528,-1.3209,-45.25,5.25,11.75,177.31,28.91,-100.02,73355,2015-10-07 16:27:26:338,0
9.4427,-5.7078,0.3448,9.1168,-3.2707,-1.5355,0.326,-2.4371,1.8803,0.4922,-0.4538,-1.7279,-43.5,0.5,16.25,158.81,23.93,-99.58,73455,2015-10-07 16:27:26:438,0
9.4044,-6.5505,0.7278,9.4178,-2.3,-1.4785,-0.0518,-4.3379,2.1686,0.2684,-0.3622,-1.3614,-40.5,-3.25,20,142.11,17.27,-99.28,73555,2015-10-07 16:27:26:538,0
9.2512,-5.9951,2.49,9.5858,-1.6113,-1.2983,-0.1879,-4.5949,3.51,0.4112,-0.228,-1.8514,-40,-9.25,21.75,134.01,9.46,-97.71,73655,2015-10-07 16:27:26:638,0
7.0868,-4.0606,-2.5474,9.557,-0.5894,-2.118,-2.4305,-3.7072,0.0788,2.5311,-0.6839,-0.9609,-37.25,-14.5,23,137.51,3.64,-101.48,73756,2015-10-07 16:27:26:739,0
5.3247,-5.0757,-5.7269,9.4932,-1.339,-2.063,-4.2144,-4.0971,-3.6729,0.3089,0.326,1.2229,-32.75,-14.5,27.5,129.49,4.32,-102.16,73855,2015-10-07 16:27:26:838,0
5.8802,-2.9497,-4.0414,9.0893,-3.2367,-1.755,-3.2091,0.287,-2.2865,0.5348,0.7755,3.5452,-32.25,-12,30.25,135.23,19.27,-100.93,73954,2015-10-07 16:27:26:937,0
11.2432,-3.2178,-5.5737,6.9554,-6.8239,-1.1075,4.0369,1.8378,-3.9528,2.7633,-1.9665,2.4416,-34.25,-2.75,29.5,137.57,39.76,-98.81,74054,2015-10-07 16:27:27:037,0
10.2472,-4.6352,-1.8196,6.811,-6.9035,-1.4564,4.3556,2.8127,-1.214,-1.3998,1.2954,-0.7393,-30.25,15.25,29.5,122.01,44.75,-102.07,74154,2015-10-07 16:27:27:137,0
8.5042,-4.9991,0.1915,7.4698,-6.2265,-1.2662,0.8344,1.0414,0.8088,1.5404,-1.2613,-1.2187,-27,20.25,30.25,100.47,39.41,-99.62,74254,2015-10-07 16:27:27:237,0
9.232,-5.114,-2.1261,8.0363,-5.4331,-1.4387,1.1311,0.1295,-0.3743,1.0269,-1.3614,-1.3998,-27.75,19.25,29.25,98.42,35.89,-99.35,74355,2015-10-07 16:27:27:338,0
7.7572,-5.861,0.0575,8.9816,-3.6183,-1.5523,-0.9315,-2.1415,1.5841,-0.1236,0.0703,-2.041,-28.25,19.25,30.5,77.89,21.65,-99.81,74455,2015-10-07 16:27:27:438,0
5.7461,-4.9225,0.3831,9.3349,-2.6766,-1.3658,-3.5748,-2.2074,1.7687,0.7244,-0.0959,-0.7308,-31.25,13,32,83.97,15.84,-98.32,74555,2015-10-07 16:27:27:538,0
8.4276,-6.6846,1.245,9.1972,-3.2249,-1.0869,-0.7697,-3.4598,2.3319,1.0269,-0.2045,1.5425,-32.25,10,33.5,88.65,15.82,-97.72,74654,2015-10-07 16:27:27:637,0
10.2663,-5.1715,0.0958,8.4628,-4.8853,-0.8275,1.8035,-0.2862,0.9233,3.264,-2.5183,0.3494,-31.5,10.75,32.5,103.78,26.76,-95.48,74754,2015-10-07 16:27:27:737,0
11.0708,-5.5545,-0.5746,8.4645,-4.7384,-1.4385,1.8018,-0.1074,0.8447,2.5204,-2.4522,-0.8032,-28.25,17.25,32,93.21,30.7,-97.11,74855,2015-10-07 16:27:27:838,0
9.0022,-5.5929,-0.5746,8.8581,-4.0169,-1.253,0.1441,-1.576,0.6783,0.5518,-0.1534,-1.8685,-22,27.5,30.75,78.36,28.89,-99.64,74955,2015-10-07 16:27:27:938,0
9.5002,-7.106,-0.5746,9.2981,-2.753,-1.4619,0.2021,-4.3529,0.8873,-0.098,-0.6796,-1.0482,-23.5,31.5,28.25,48.66,17.75,-97.88,75054,2015-10-07 16:27:28:037,0
9.2512,-5.9568,-0.0766,9.5206,-1.8553,-1.4445,-0.2694,-4.1015,1.3679,-0.7244,0.6328,-1.3167,-25.5,29.5,28.25,46.11,13.3,-99.85,75154,2015-10-07 16:27:28:137,0
5.4205,-4.2329,-0.5555,9.7036,-0.9602,-1.0431,-4.2832,-3.2727,0.4877,0.4836,-0.0618,-0.7521,-30.5,22,29.5,54.97,5.62,-96.14,75255,2015-10-07 16:27:28:238,0
4.616,-4.5394,-2.2793,9.6676,-1.2167,-1.1083,-5.3959,-3.264,-1.0244,-0.0234,-0.1939,1.5169,-32.75,17,28.25,56.61,4.3,-96.37,75355,2015-10-07 16:27:28:338,0
12.22,-9.2512,-2.0111,9.2088,-3.0478,-1.4422,0.9773,-5.8111,-0.9514,-1.2549,-0.2748,3.5473,-33.75,16.25,28,71.69,12.27,-97.69,75455,2015-10-07 16:27:28:438,0
11.1474,-3.0071,-2.3942,7.4287,-6.1686,-1.713,3.7187,3.1614,-0.6812,-0.9758,1.0738,2.9444,-31.75,20.5,29.25,88.78,24.96,-100.59,75555,2015-10-07 16:27:28:538,0
12.2009,-4.2904,-1.8387,6.4177,-7.1408,-1.9981,5.7832,2.8504,0.1593,0.4538,-1.127,1.0823,-23.25,28.5,31.25,97.07,46.73,-107.29,75655,2015-10-07 16:27:28:638,0
8.9064,-3.3519,-2.7581,6.7426,-6.8121,-2.0744,2.1639,3.4602,-0.6837,0.4005,-1.0205,-1.4381,-16.5,31.25,32.75,83.6,46.64,-107.44,75755,2015-10-07 16:27:28:738,0
8.8873,-5.4396,-0.5938,7.647,-5.6177,-2.4769,1.2403,0.1781,1.8831,0.7393,-0.8245,-1.9132,-12.25,33.25,32,73.03,42.32,-107.36,75855,2015-10-07 16:27:28:838,0
8.2552,-5.8993,-1.0918,8.4867,-4.2244,-2.5099,-0.2315,-1.6749,1.4182,1.0035,-0.7265,-1.9303,-13.25,33.75,32.5,55,28.33,-106.78,75955,2015-10-07 16:27:28:938,0
7.2975,-5.5545,-1.1109,9.0201,-2.9979,-2.4126,-1.8184,-2.4992,1.3017,1.0866,-0.2067,-1.7002,-16,33.5,32.5,49.11,19.71,-105.52,76054,2015-10-07 16:27:29:037,0
6.7038,-4.865,-1.1875,9.2561,-2.4251,-2.148,-2.7056,-2.5165,0.9796,1.6107,0.0213,-0.8863,-22,32.75,31.25,45.32,14.32,-103.07,76155,2015-10-07 16:27:29:138,0
6.9528,-4.5394,-2.2793,9.3845,-2.3424,-1.6169,-2.4317,-2.197,-0.6624,1.4786,0.4346,-0.3899,-26.5,32.25,28.25,45.41,13.82,-102.25,76255,2015-10-07 16:27:29:238,0
8.6766,-5.7652,-2.2984,9.4236,-2.4553,-1.1568,-0.2911,-3.6561,-1.4959,0.669,0.6796,0.1832,-29.75,32.75,24,40.32,14.5,-97,76355,2015-10-07 16:27:29:338,0
10.228,-3.7924,-3.6775,9.4078,-2.7681,0.0143,0.8202,-1.0243,-3.6918,-2.1646,2.154,-0.5795,-32,36,18.25,36.36,15.81,-94.98,76455,2015-10-07 16:27:29:438,0
9.098,-4.6926,0.0192,9.3287,-2.5044,1.6955,-0.2307,-2.1883,-1.6763,-3.2874,3.4621,-0.7606,-33.5,37.5,13,29.87,14.87,-83.85,76555,2015-10-07 16:27:29:538,0
