ACCELEROMETER X (m/s²),ACCELEROMETER Y (m/s²),ACCELEROMETER Z (m/s²),GRAVITY X (m/s²),GRAVITY Y (m/s²),GRAVITY Z (m/s²),LINEAR ACCELERATION X (m/s²),LINEAR ACCELERATION Y (m/s²),LINEAR ACCELERATION Z (m/s²),GYROSCOPE X (rad/s),GYROSCOPE Y (rad/s),GYROSCOPE Z (rad/s),MAGNETIC FIELD X (μT),MAGNETIC FIELD Y (μT),MAGNETIC FIELD Z (μT),ORIENTATION Z (azimuth °),ORIENTATION X (pitch °),ORIENTATION Y (roll °),Time since start in ms ,YYYY-MO-DD HH-MI-SS_SSS
-0.1915,6.3973,6.0908,-2.1891,6.3265,7.1662,1.9616,0.1213,-1.1304,1.2613,-0.0469,-1.0099,16.75,-21.0,-19.25,259.35,-38.63,15.77,89,2015-10-08 14:05:36:999
-0.3256,6.7995,7.3741,-1.9601,6.1152,7.4116,1.6919,0.5119,8.0E-4,0.1129,-1.9516,-1.0354,16.75,-22.75,-18.0,263.63,-39.91,17.91,179,2015-10-08 14:05:37:089
-2.0877,6.5505,7.3741,-1.2081,6.6778,7.0794,-0.8797,-0.1273,0.2948,1.1888,-1.306,-0.8288,17.25,-24.5,-17.25,249.68,-41.15,10.14,278,2015-10-08 14:05:37:188
-1.3599,7.7572,4.6735,-0.8451,7.7885,5.8988,-0.5148,-0.0312,-1.2253,2.073,-1.4999,-0.4985,17.75,-25.75,-14.5,253.52,-48.86,8.66,378,2015-10-08 14:05:37:288
-1.3599,8.2361,4.3862,-0.79,8.2113,5.3029,-0.775,-0.1891,-1.9316,0.5731,-0.5625,-0.3324,19.5,-27.0,-9.0,255.3,-56.86,8.47,479,2015-10-08 14:05:37:389
-0.7853,8.0445,5.8993,-0.757,8.2594,5.2325,-0.251,0.118,0.5009,0.0426,-1.1803,-0.0682,21.75,-24.75,-5.5,252.46,-57.38,8.23,579,2015-10-08 14:05:37:489
-0.1149,7.2975,4.8842,-0.4504,8.4903,4.887,-0.1071,-1.2875,0.6704,0.7436,-1.2996,-0.3899,23.75,-20.25,-4.0,258.81,-59.97,5.27,678,2015-10-08 14:05:37:588
-0.0766,7.106,6.359,-0.2124,8.157,5.4396,-0.0804,-0.9795,1.2937,-0.784,-1.2208,-0.1278,23.0,-15.0,-5.5,262.02,-59.37,5.03,778,2015-10-08 14:05:37:688
-1.4557,6.3207,7.3358,-0.2547,7.6597,6.1184,-1.201,-1.339,1.2175,0.1364,0.2173,0.2791,23.0,-10.75,-10.0,264.24,-51.82,2.78,879,2015-10-08 14:05:37:789
0.0,8.351,3.9265,0.0145,8.0163,5.6489,-0.0145,0.3347,-1.7224,0.2301,-0.1662,0.1044,23.5,-9.0,-12.75,282.65,-54.83,-0.15,979,2015-10-08 14:05:37:889
-1.494,8.2935,4.7309,0.2868,7.9623,5.7176,-1.7808,0.3313,-0.9866,-0.6562,0.326,0.9204,23.0,-9.5,-12.25,278.54,-54.28,-2.87,1078,2015-10-08 14:05:37:988
-0.0766,7.7572,5.7652,0.6655,7.864,5.8211,-0.7421,-0.1068,-0.0558,0.49,-0.0597,1.0994,22.75,-10.25,-12.5,273.52,-53.31,-6.52,1180,2015-10-08 14:05:38:090
2.3176,7.3167,4.5969,1.6376,8.2987,4.9619,0.5076,-1.1352,-0.4417,0.4517,-0.4176,0.1832,20.75,-12.25,-13.75,268.32,-57.8,-18.26,1279,2015-10-08 14:05:38:189
2.241,8.4467,3.4093,1.8548,8.5352,4.4588,0.5011,-0.912,-1.3368,-0.0916,0.0192,0.0341,17.5,-14.25,-13.75,265.68,-60.5,-22.59,1379,2015-10-08 14:05:38:289
1.6664,8.5617,3.869,1.7659,8.5667,4.4344,-0.2528,0.1099,-0.7186,-0.4069,0.3984,-0.066,14.75,-16.75,-13.0,262.19,-60.88,-21.71,1478,2015-10-08 14:05:38:388
1.3408,8.1977,4.2521,1.6038,8.5708,4.4877,-0.1403,-0.2532,-0.265,0.2173,-0.1321,0.0107,15.5,-15.75,-13.25,264.76,-60.92,-19.67,1578,2015-10-08 14:05:38:488
1.992,8.3701,2.8347,1.8211,8.786,3.9572,0.1708,-0.4159,-1.1225,0.1001,-0.2258,-0.0447,16.0,-16.75,-13.25,263.14,-62.01,-21.11,1678,2015-10-08 14:05:38:588
1.1684,8.3318,2.8347,1.8985,8.8525,3.7683,-0.4987,-0.5827,-0.9138,0.2642,-0.2983,0.2131,16.75,-18.0,-13.0,259.78,-63.79,-24.82,1780,2015-10-08 14:05:38:690
2.1261,8.1786,3.0454,2.0937,8.8383,3.6974,0.1409,-0.77,-0.1426,-0.424,0.049,0.3089,15.25,-19.0,-13.0,260.6,-64.52,-26.74,1879,2015-10-08 14:05:38:789
2.2793,8.0637,3.5817,2.3076,8.6668,3.9663,-0.031,-0.6348,-0.4052,-0.1704,0.1726,0.2535,14.5,-19.5,-13.5,254.96,-62.87,-29.71,1978,2015-10-08 14:05:38:888
3.1987,8.6957,3.0454,2.5047,8.6204,3.9479,0.7159,0.0668,-0.8977,-0.196,-0.1087,0.1278,13.0,-20.25,-13.75,255.68,-62.1,-30.19,2079,2015-10-08 14:05:38:989
2.4325,8.1977,3.984,2.4958,8.525,4.1551,-0.3123,-0.1932,-0.1137,-0.0916,-0.0107,-0.1214,13.0,-19.75,-13.5,251.22,-60.73,-31.68,2179,2015-10-08 14:05:39:089
2.3176,8.1594,3.9265,2.5521,8.5081,4.1557,-0.2491,-0.3479,-0.2217,-0.0128,-0.2706,0.1172,13.5,-18.25,-12.5,250.91,-60.22,-31.09,2278,2015-10-08 14:05:39:188
2.3559,7.9296,3.735,2.6049,8.5418,4.0524,-0.2461,-0.6087,-0.3267,-0.2322,-0.3068,-0.1619,12.75,-17.25,-13.5,254.69,-60.64,-32.68,2378,2015-10-08 14:05:39:288
2.1644,8.0254,3.2944,2.76,8.677,3.6418,0.86,2.0874,-1.0561,0.2365,-0.1513,0.2237,12.5,-17.25,-14.25,255.86,-61.74,-35.7,2479,2015-10-08 14:05:39:389
2.6815,8.2744,2.873,2.857,8.7419,3.404,-0.1755,-0.4675,-0.531,-0.0511,-0.081,0.2301,12.25,-17.75,-15.0,256.09,-62.82,-39.28,2578,2015-10-08 14:05:39:488
2.7773,8.2744,3.1795,2.9783,8.722,3.3505,-0.2011,-0.4477,-0.171,0.0256,-0.0277,0.2258,12.25,-18.25,-14.75,255.73,-63.05,-40.01,2679,2015-10-08 14:05:39:589
3.2753,8.0637,2.8347,3.1556,8.7163,3.1998,0.1197,-0.6526,-0.365,0.115,-0.0128,0.1513,11.5,-19.5,-14.5,254.0,-62.8,-41.63,2779,2015-10-08 14:05:39:689
3.0071,8.2744,2.7007,3.1977,8.7676,3.0124,-0.2289,-0.4549,-0.3308,0.1065,0.0703,0.0746,11.0,-19.25,-14.0,249.19,-62.72,-44.6,2879,2015-10-08 14:05:39:789
2.739,8.4659,2.5474,3.1816,8.7997,2.9347,-0.4427,-0.3338,-0.3872,-0.0298,0.1662,-0.0043,11.5,-20.75,-14.0,244.77,-63.68,-47.23,2979,2015-10-08 14:05:39:889
3.1603,8.2361,2.5474,3.1308,8.8136,2.9478,0.0295,-0.5775,-0.4004,-0.0064,0.0575,-0.1236,11.0,-20.0,-13.25,243.27,-63.85,-47.19,3079,2015-10-08 14:05:39:989
2.8922,8.4084,2.8922,3.0909,8.8195,2.972,-0.1369,-0.4865,-0.1454,-0.179,-0.1001,-0.0021,9.25,-21.75,-12.5,241.71,-64.18,-46.49,3179,2015-10-08 14:05:40:089
2.8539,8.3318,2.7581,3.0279,8.842,2.97,-0.1315,-0.5044,-0.1951,-0.1896,0.0426,-0.0341,9.5,-21.0,-12.25,242.97,-64.37,-45.55,3279,2015-10-08 14:05:40:189
3.0837,8.1594,2.9113,3.0061,8.7968,3.1226,0.0777,-0.6373,-0.2112,-0.2216,0.1278,0.1321,10.25,-20.0,-12.5,243.45,-64.08,-45.08,3378,2015-10-08 14:05:40:288
2.8922,8.3127,2.9497,3.0342,8.7087,3.3352,-0.142,-0.396,-0.3855,-0.1214,0.1385,0.066,11.5,-20.0,-13.5,246.99,-63.38,-43.61,3479,2015-10-08 14:05:40:389
2.7198,8.2361,3.1412,3.0919,8.6603,3.4074,-0.3721,-0.4242,-0.2662,-0.0682,-0.0107,0.0618,12.75,-19.5,-13.5,246.1,-62.4,-41.95,3578,2015-10-08 14:05:40:488
2.6624,8.0445,3.7733,3.1241,8.548,3.6528,-0.3982,-0.5223,0.0672,-0.2684,0.2216,0.3878,10.25,-18.75,-14.75,253.97,-61.31,-41.2,3678,2015-10-08 14:05:40:588
3.122,7.9871,3.4093,3.2203,8.4495,3.7956,-0.3037,-0.4392,-0.2038,0.0724,0.115,-0.0895,11.0,-19.0,-15.5,251.88,-59.5,-40.31,3780,2015-10-08 14:05:40:690
3.122,8.0254,3.3902,3.145,8.4688,3.8156,0.2081,-0.3428,-0.1692,-0.1385,0.2599,0.1342,10.5,-19.0,-14.75,252.59,-59.96,-39.92,3880,2015-10-08 14:05:40:790
3.4668,7.7955,4.0223,3.2061,8.4176,3.8775,0.2695,-0.6339,0.179,-0.1065,0.3537,0.0043,11.25,-19.0,-13.75,249.78,-59.52,-39.7,3980,2015-10-08 14:05:40:890
3.7541,8.6191,4.6543,3.1352,8.3498,4.0771,0.702,0.3542,0.4269,0.1449,0.2493,-0.2621,11.5,-19.25,-13.5,246.95,-58.37,-37.56,4079,2015-10-08 14:05:40:989
3.4285,8.4851,4.616,2.8125,8.4952,4.0115,0.5203,-0.1059,0.4705,0.539,0.424,-0.3153,13.5,-20.0,-13.25,246.7,-59.2,-35.59,4178,2015-10-08 14:05:41:088
2.0494,7.9871,3.2753,2.2392,8.8018,3.6993,-0.1897,-0.8148,-0.424,0.7521,0.6519,-0.2663,14.0,-21.0,-12.5,247.9,-62.15,-32.13,4279,2015-10-08 14:05:41:189
1.4557,7.9487,3.5817,1.7807,8.9358,3.6265,-0.325,-0.987,-0.0448,0.1193,0.9864,-0.2471,15.75,-24.25,-11.25,249.15,-65.67,-26.15,4379,2015-10-08 14:05:41:289
0.4788,8.2169,3.486,1.3044,8.965,3.7547,-0.8255,-0.7481,-0.2688,-0.1108,0.7159,-0.0533,16.5,-27.75,-8.25,242.95,-66.09,-19.16,4478,2015-10-08 14:05:41:388
0.5363,8.849,3.4093,0.7989,9.0688,3.6454,-0.2626,-0.2198,-0.2361,0.4964,0.1257,-0.2131,18.5,-29.0,-5.5,240.75,-66.89,-13.53,4578,2015-10-08 14:05:41:488
-0.3639,9.3087,1.7238,0.3888,9.3246,3.0119,-0.7527,-0.0159,-1.288,0.3728,0.5177,-0.4005,20.25,-30.75,-3.5,245.52,-71.96,-7.36,4679,2015-10-08 14:05:41:589
-0.1149,9.6726,1.1492,-0.1064,9.4665,2.5582,-0.1426,0.0529,-1.4282,0.3941,0.4922,-0.1875,21.5,-31.5,-1.5,250.15,-73.72,-0.58,4778,2015-10-08 14:05:41:688
-0.8619,8.6957,1.6664,-0.5011,9.5185,2.306,-0.0705,-0.7712,-0.4714,0.2429,0.5838,-0.228,22.5,-31.0,1.0,260.82,-76.08,12.26,4879,2015-10-08 14:05:41:789
-0.8236,8.8107,0.9768,-0.7532,9.5819,1.9469,0.1594,-0.7329,-0.7785,0.3132,0.3089,-0.1832,23.0,-30.25,2.25,269.74,-77.71,21.15,4978,2015-10-08 14:05:41:888
-1.0726,8.849,1.0726,-1.0216,9.628,1.5582,-0.051,-0.7791,-0.4856,0.2365,0.1768,-0.2834,24.5,-29.75,4.75,278.78,-79.05,33.25,5078,2015-10-08 14:05:41:988
-0.9577,9.2512,0.5555,-1.2138,9.6559,1.2082,0.2561,-0.4048,-0.6527,0.2855,0.0256,-0.228,19.5,-25.5,10.0,273.09,-79.27,37.13,5179,2015-10-08 14:05:42:089
-1.2067,9.3278,0.6704,-1.3774,9.6547,1.0297,0.1548,-0.4034,-0.5589,0.2365,0.0874,-0.2344,20.0,-24.25,12.0,278.38,-79.99,50.03,5279,2015-10-08 14:05:42:189
-1.7047,9.098,0.4214,-1.6191,9.6364,0.8295,-0.0856,-0.5768,-0.3124,0.3707,0.0959,-0.2748,20.5,-23.0,13.5,289.55,-79.31,62.87,5378,2015-10-08 14:05:42:288
-1.9728,9.1363,0.6895,-1.9212,9.5974,0.6076,-0.0516,-0.4611,0.0819,0.1364,0.1534,-0.3665,21.75,-22.75,14.75,298.52,-78.14,72.45,5478,2015-10-08 14:05:42:388
-2.2601,9.0788,0.5746,-2.1969,9.5524,0.3102,0.0238,-0.3635,0.0876,0.326,-0.1364,-0.0426,22.5,-22.5,15.0,308.03,-77.16,80.04,5578,2015-10-08 14:05:42:488
-2.2793,9.1363,-0.1915,-2.2895,9.5356,0.0199,-0.0204,-0.3737,-0.2286,0.3473,-0.066,-0.2088,24.0,-19.75,15.75,314.51,-76.78,86.0,5678,2015-10-08 14:05:42:588
-2.5283,9.0788,-0.4597,-2.5456,9.4662,-0.2845,-0.0118,-0.3179,-0.4207,0.0234,0.0767,-0.2322,25.5,-20.0,17.0,324.51,-75.51,95.17,5778,2015-10-08 14:05:42:688
-2.8347,8.9256,-0.5746,-2.7743,9.3986,-0.3751,-0.1342,-0.5235,-0.0164,0.1001,0.1214,-0.3622,26.25,-18.75,17.5,326.37,-73.41,97.7,5879,2015-10-08 14:05:42:789
-3.0454,8.8873,-0.4597,-2.9725,9.3296,-0.5417,-0.0171,-0.4092,-0.015,0.2599,-0.1385,-0.2386,24.0,-14.5,15.25,333.21,-72.05,100.33,5979,2015-10-08 14:05:42:889
-3.371,8.6957,-0.5746,-3.1951,9.2448,-0.7041,-0.176,-0.5491,0.1295,0.1236,0.1449,-0.2301,24.25,-14.75,16.0,332.78,-70.51,102.43,6078,2015-10-08 14:05:42:988
-3.5051,8.7724,-0.7278,-3.3656,9.1759,-0.8031,-0.1395,-0.4036,0.0753,0.1129,-0.0341,-0.1534,25.0,-14.0,16.0,335.37,-69.34,103.42,6178,2015-10-08 14:05:43:088
-3.5434,8.6957,-0.9768,-3.5845,9.0886,-0.848,-0.041,-0.4041,0.046,0.115,-0.13,-0.0788,24.75,-12.25,16.0,335.52,-68.67,103.17,6279,2015-10-08 14:05:43:189
-3.7924,8.6957,-0.6704,-3.6913,9.0443,-0.8631,0.0014,-0.2963,0.3066,-0.0107,0.0597,-0.0192,26.75,-13.0,16.5,335.21,-67.45,102.9,6379,2015-10-08 14:05:43:289
-3.735,8.5808,-0.8045,-3.786,9.0001,-0.9134,0.0376,-0.4451,0.1564,0.0618,-0.0043,-0.0405,27.5,-10.25,16.0,339.53,-66.81,103.28,6479,2015-10-08 14:05:43:389
-3.9073,8.5425,-0.9577,-3.8631,8.9601,-0.9816,-0.0443,-0.4176,0.0239,0.0149,0.0383,-0.0874,26.5,-12.0,16.0,338.62,-66.21,104.2,6579,2015-10-08 14:05:43:489
-3.9073,8.5234,-1.0918,-3.8615,8.9647,-0.9451,-0.0458,-0.4413,-0.1467,-0.081,-0.1023,0.147,26.5,-11.5,17.0,337.1,-66.02,104.26,6679,2015-10-08 14:05:43:589
-3.8116,8.5808,-1.1684,-3.7459,9.0245,-0.8351,-0.2201,-0.4455,0.0305,-0.1257,-0.0916,0.228,27.75,-11.75,16.5,336.51,-66.56,102.9,6779,2015-10-08 14:05:43:689
-3.3136,8.5425,-0.6512,-3.359,9.1934,-0.6077,-0.0219,-0.7894,-0.0268,-0.3409,-0.2663,0.4985,26.75,-10.75,16.25,335.88,-68.58,101.06,6879,2015-10-08 14:05:43:789
-2.7007,8.4084,-0.3065,-2.8076,9.3925,-0.2624,0.3536,-0.9491,-0.2223,-0.3473,-0.2578,0.7372,25.25,-13.25,14.75,330.99,-72.1,97.0,6979,2015-10-08 14:05:43:889
-2.2601,8.6191,-0.6895,-2.1819,9.5595,0.1603,-0.0886,-0.9354,-0.9432,-0.5965,-0.4133,0.6946,22.5,-15.5,12.5,329.43,-73.29,95.34,7079,2015-10-08 14:05:43:989
-1.1492,8.5808,0.7278,-1.2897,9.6727,0.9721,-0.0232,-1.1624,-0.4637,-0.7691,-0.4474,0.9225,20.0,-17.0,10.5,316.81,-78.19,80.54,7179,2015-10-08 14:05:44:089
-0.0383,9.0788,2.8922,-0.3871,9.6037,1.9468,0.5923,-0.5577,0.9396,-0.6924,-0.637,0.6541,17.25,-20.0,7.5,269.3,-80.35,34.93,7278,2015-10-08 14:05:44:188
0.747,9.1937,2.49,0.2179,9.4979,2.4318,0.4496,-0.2938,0.0052,-0.4112,-0.4581,0.3792,14.25,-21.75,3.75,236.52,-76.42,-0.73,7378,2015-10-08 14:05:44:288
0.6704,9.3661,2.9497,0.706,9.4143,2.6538,-0.0356,-0.0482,0.2959,-0.3004,-0.5689,0.3665,11.25,-20.25,-0.25,231.11,-74.96,-8.51,7478,2015-10-08 14:05:44:388
1.2258,8.8681,2.7581,1.3208,9.2955,2.8319,0.0475,-0.0238,0.0157,-0.2131,-0.473,0.4261,8.75,-19.5,-3.0,236.44,-72.4,-21.84,7579,2015-10-08 14:05:44:489
2.3367,8.2935,4.118,1.8151,9.1317,3.0803,0.4589,-0.8324,0.7719,-0.3941,-0.4708,0.473,6.75,-19.5,-4.0,231.64,-70.03,-28.93,7678,2015-10-08 14:05:44:588
3.1987,8.3893,4.2138,2.4548,8.8487,3.4416,0.2267,-0.6893,1.0021,-0.0575,-0.3963,0.4048,5.25,-17.5,-4.5,224.92,-66.12,-33.93,7779,2015-10-08 14:05:44:689
3.1412,8.3127,4.1946,2.8981,8.6907,3.499,0.2431,-0.378,0.6957,-0.3111,-0.4282,0.2301,4.0,-15.25,-6.25,235.29,-63.47,-38.84,7879,2015-10-08 14:05:44:789
3.7541,8.351,4.0223,3.1414,8.6594,3.364,0.6127,-0.3084,0.6583,-0.049,-0.2365,0.0362,2.0,-12.75,-6.25,238.8,-62.17,-42.44,7979,2015-10-08 14:05:44:889
3.1603,7.5848,3.735,3.2352,8.6466,3.3075,-0.0748,-1.0618,0.4274,-0.1513,-0.1555,0.2003,2.0,-11.0,-7.0,253.52,-62.31,-43.75,8079,2015-10-08 14:05:44:989
4.0031,7.604,3.1987,3.5634,8.5431,3.2386,0.4397,-0.9391,-0.0399,-0.0043,-0.3878,0.2067,2.75,-9.0,-8.75,264.34,-60.82,-46.27,8179,2015-10-08 14:05:45:089
4.1372,7.4316,3.5817,3.6989,8.4209,3.4024,0.4083,-0.9409,0.4711,-0.2152,0.2365,-0.0703,-6.0,-7.75,-12.0,323.68,-59.68,-48.19,8279,2015-10-08 14:05:45:189
4.0223,7.4891,3.4668,3.8239,8.33,3.487,0.1984,-0.841,-0.0202,-0.1044,-0.0682,0.0639,-9.25,-8.75,-13.0,336.99,-58.15,-47.64,8379,2015-10-08 14:05:45:289
4.0031,7.7381,3.6775,3.8885,8.2152,3.6823,-0.0422,-0.5547,-0.3582,-0.2834,-0.0554,-0.0575,-10.25,-8.25,-14.25,335.06,-57.94,-47.91,8479,2015-10-08 14:05:45:389
3.6775,7.7955,3.9073,3.8778,8.2011,3.7249,-0.1262,-0.5049,0.078,-0.0639,-0.2258,-0.0874,-10.25,-9.25,-15.0,338.51,-56.76,-46.04,8579,2015-10-08 14:05:45:489
3.4477,7.6806,2.988,3.8742,8.237,3.6487,-0.4043,-0.55,-0.64,-0.2898,-0.0959,-0.0767,-9.75,-8.75,-15.75,335.22,-57.02,-46.76,8678,2015-10-08 14:05:45:588
3.6392,7.604,3.7924,3.8437,8.0731,4.0275,-0.2044,-0.4657,-0.0695,-0.6541,0.0277,-0.1214,-9.0,-8.25,-17.0,332.63,-56.11,-44.82,8779,2015-10-08 14:05:45:689
3.735,7.2592,4.5969,3.8301,7.8408,4.4747,-0.0951,-0.5816,0.1221,-0.1598,-0.0341,0.0256,-8.0,-7.5,-18.25,332.29,-53.44,-40.96,8879,2015-10-08 14:05:45:789
3.6583,7.106,4.5969,3.7982,7.7588,4.6416,-0.1016,-0.4996,-0.1022,-0.1875,0.1129,0.1406,-7.75,-5.25,-20.5,333.87,-52.3,-39.29,8979,2015-10-08 14:05:45:889
3.9648,7.1443,4.5969,3.7887,7.6325,4.854,0.2144,-0.6222,-0.1997,-0.2834,-0.0937,-0.1044,-7.75,-6.0,-21.25,334.35,-51.81,-38.78,9078,2015-10-08 14:05:45:988
4.0223,6.8187,4.9033,3.7034,7.5403,5.0596,0.2997,-0.6258,-0.2137,-0.4005,0.1065,-0.3238,-7.25,-4.5,-22.25,331.01,-50.75,-37.49,9178,2015-10-08 14:05:46:088
3.5434,6.6272,5.3247,3.4437,7.4015,5.4341,0.0614,-0.7169,-0.0902,-0.3451,-0.0043,-0.2599,-7.0,-3.75,-22.25,330.71,-49.9,-35.14,9278,2015-10-08 14:05:46:188
2.6815,6.9911,5.9951,3.1142,7.3668,5.6746,-0.2143,-0.3291,0.5672,-0.0533,0.3515,-0.5965,-5.25,-0.25,-23.0,337.15,-48.65,-31.53,9379,2015-10-08 14:05:46:289
1.9728,6.7804,5.2098,2.6408,7.5914,5.6184,-1.3898,-0.5984,0.0378,0.2407,0.0362,-0.4708,-2.0,-1.0,-23.25,333.71,-50.72,-25.17,9479,2015-10-08 14:05:46:389
1.9345,7.6998,7.2592,1.9361,7.4091,6.1259,-0.0016,0.2906,1.1333,-0.5689,1.2251,0.1598,-0.25,-1.25,-22.0,333.18,-50.43,-20.51,9579,2015-10-08 14:05:46:489
1.0534,6.9911,4.865,1.5515,7.5938,6.0081,-0.498,-0.6027,-1.1431,0.4836,0.5667,-0.0064,1.0,0.0,-19.75,336.43,-49.07,-17.54,9679,2015-10-08 14:05:46:589
0.0192,7.8721,5.2289,0.8828,7.7712,5.9161,-0.6819,0.7689,-0.2895,0.0511,0.294,-0.0682,3.25,-1.75,-15.0,333.86,-51.38,-13.31,9778,2015-10-08 14:05:46:688
0.3065,7.0868,5.7461,0.7004,7.7392,5.9821,-0.4961,-0.564,-0.034,-0.2045,0.8181,0.5262,4.0,-1.5,-12.0,326.25,-52.34,-7.73,9879,2015-10-08 14:05:46:789
0.5555,7.106,6.3207,0.7086,7.6022,6.1542,-0.0778,-0.4384,0.0965,0.1726,0.1172,0.5326,4.25,-3.75,-10.75,320.64,-51.6,-6.44,9979,2015-10-08 14:05:46:889
1.3408,7.2975,4.9799,0.9356,7.6372,6.0801,0.5261,-0.0403,-0.5656,-0.1449,0.4027,0.5454,1.75,-8.5,-10.0,308.14,-50.87,-7.45,10078,2015-10-08 14:05:46:988
1.4557,7.4699,4.865,1.0555,7.6709,6.0178,0.3815,-0.1653,-1.0504,-0.0639,0.2088,0.2983,-1.25,-12.25,-9.0,234.47,-51.46,-9.95,10178,2015-10-08 14:05:47:088
1.3216,7.604,5.2289,1.0807,7.6787,6.0034,0.234,-0.0757,-0.7719,-0.0767,0.1108,-0.2834,-4.25,-12.5,-10.5,69.82,-51.52,-10.24,10278,2015-10-08 14:05:47:188
0.8619,7.355,5.9568,0.9706,7.6239,6.0913,-0.1054,-0.2708,-0.1327,0.0511,0.1747,0.0618,-6.25,-15.0,-11.5,93.04,-51.1,-9.23,10379,2015-10-08 14:05:47:289
1.1492,7.355,5.5354,0.9493,7.6131,6.1082,0.2,-0.2581,-0.5728,-0.0575,0.3111,0.0746,-5.75,-16.25,-12.0,93.37,-51.06,-8.99,10479,2015-10-08 14:05:47:389
1.1684,7.4699,5.6312,0.8967,7.5896,6.1453,0.2717,-0.1197,-0.5141,0.0405,0.2216,0.1023,-6.0,-16.75,-11.75,102.2,-50.7,-8.36,10579,2015-10-08 14:05:47:489
0.9768,7.4699,5.4779,0.846,7.5848,6.1584,0.0351,-0.1532,-0.7188,-0.1726,0.2344,0.0128,-5.75,-16.25,-12.25,93.28,-50.83,-8.02,10678,2015-10-08 14:05:47:588
0.747,6.9336,6.5122,0.7834,7.4798,6.2936,-0.0555,-0.5271,0.0271,-0.0703,0.0724,-0.1129,-6.25,-15.5,-12.75,80.8,-49.71,-7.1,10779,2015-10-08 14:05:47:689
0.7853,7.1443,6.11,0.746,7.4476,6.3362,0.0393,-0.3033,-0.2262,-0.0021,0.0511,-0.0234,-7.0,-16.0,-13.5,89.82,-49.41,-6.71,10878,2015-10-08 14:05:47:788
0.498,7.0677,6.1483,0.6578,7.4191,6.3792,-0.1598,-0.3514,-0.2309,-0.0234,0.1598,-0.066,-6.25,-17.0,-13.0,100.08,-49.26,-6.14,10979,2015-10-08 14:05:47:889
0.7087,7.0294,6.2441,0.6292,7.3661,6.4432,0.0259,-0.3179,-0.2355,-0.1044,-0.0469,-0.0788,-6.25,-15.75,-13.75,85.76,-48.69,-5.58,11079,2015-10-08 14:05:47:989
0.5555,7.106,6.0908,0.6384,7.3661,6.4423,-0.1728,-0.3007,-0.3111,0.032,0.0533,-0.0192,-6.5,-16.0,-14.0,85.68,-48.69,-5.66,11179,2015-10-08 14:05:48:089
0.4597,7.0102,6.4931,0.6114,7.3706,6.4398,-0.0871,-0.4157,-0.1797,0.0192,0.0362,0.0426,-5.5,-15.75,-13.25,97.17,-48.73,-5.42,11278,2015-10-08 14:05:48:188
-0.249,7.1443,6.4356,0.6312,7.47,6.3223,-0.8751,-0.3038,0.2562,0.2706,-0.0362,0.3025,-5.75,-15.75,-13.5,90.72,-49.62,-5.7,11379,2015-10-08 14:05:48:289
0.1532,6.1866,7.4316,0.5542,7.3303,6.4907,-0.4057,-1.1407,0.6681,0.0937,0.6051,0.3558,-6.0,-15.25,-13.5,86.22,-48.86,-5.54,11479,2015-10-08 14:05:48:389
0.0766,6.5314,6.9336,0.2997,7.1575,6.697,-0.1553,-0.5454,0.3637,-0.3047,0.9033,0.3941,-6.5,-15.0,-13.25,96.11,-46.88,-2.56,11578,2015-10-08 14:05:48:488
0.0575,6.4931,7.3167,-0.0599,6.8072,7.059,0.1174,-0.3141,0.2577,-0.4453,0.7478,0.5241,-8.75,-16.75,-13.75,105.76,-43.96,0.49,11678,2015-10-08 14:05:48:588
0.5363,6.7612,6.5888,-0.1557,6.684,7.1743,0.692,0.0772,-0.5854,-0.3643,0.8756,0.5987,-9.75,-16.25,-16.25,95.26,-42.97,1.24,11778,2015-10-08 14:05:48:688
0.1341,6.1483,6.3782,-0.2273,6.2734,7.5342,0.1698,0.0282,-1.6157,-1.4573,0.588,0.9204,-9.0,-15.0,-18.5,91.16,-39.77,1.73,11878,2015-10-08 14:05:48:788
0.7853,4.9416,8.9256,-0.4593,4.4418,8.731,1.1872,0.4424,0.3095,-1.6064,0.7776,0.7713,-8.0,-13.25,-21.5,104.09,-26.93,3.01,11978,2015-10-08 14:05:48:888
0.9385,3.6392,8.1977,-0.5479,3.6364,9.091,1.2183,-0.2654,-0.7017,-0.6264,0.4943,0.2471,-6.25,-10.0,-21.5,102.8,-21.77,3.45,12078,2015-10-08 14:05:48:988
-1.1301,2.1835,9.6726,-0.8358,2.8323,9.3515,-0.1602,-0.6296,0.5701,-0.7265,0.2407,-0.0831,-6.0,-9.0,-22.25,107.11,-16.79,5.11,12179,2015-10-08 14:05:49:089
-1.3982,2.0686,9.6151,-0.9402,2.4751,9.4425,-0.3431,-0.3491,0.1726,0.0597,-0.0256,-0.115,-5.25,-4.75,-23.75,96.19,-15.44,5.51,12279,2015-10-08 14:05:49:189
-0.7087,2.3176,9.3853,-0.8498,2.4844,9.4486,0.1411,-0.1668,-0.0633,0.0724,-0.0511,-0.0149,-4.75,-3.0,-25.25,72.16,-14.55,5.58,12378,2015-10-08 14:05:49:288
-0.7853,2.2027,9.3661,-0.8306,2.4171,9.4677,0.0453,-0.2144,-0.1016,-0.0256,-0.0469,0.0682,-6.5,-0.25,-21.25,57.24,-14.27,5.01,12479,2015-10-08 14:05:49:389
-0.7087,2.3176,9.1746,-0.7904,2.4006,9.4754,0.0817,-0.083,-0.3008,-0.0447,-0.032,0.147,-9.25,-0.25,-18.25,68.1,-14.17,4.77,12579,2015-10-08 14:05:49:489
-0.6704,2.2027,9.3661,-0.7372,2.3348,9.4961,0.0668,-0.1321,-0.13,-0.0618,-0.0554,-0.0149,-12.0,0.25,-18.25,73.13,-13.77,4.44,12679,2015-10-08 14:05:49:589
-0.6129,2.1452,9.3278,-0.7366,2.2411,9.5187,0.1237,-0.0959,-0.1909,-0.1406,-0.0937,-0.0298,-13.75,0.5,-18.5,70.95,-13.62,4.46,12779,2015-10-08 14:05:49:689
-0.6895,2.0686,9.5002,-0.7627,2.0923,9.5504,0.0732,-0.0237,-0.0503,-0.0618,0.0234,-0.1108,-13.5,-0.5,-19.0,74.86,-12.57,4.42,12879,2015-10-08 14:05:49:789
-0.8619,1.8387,9.5002,-0.8045,1.9766,9.5716,-0.0574,-0.1379,-0.0714,-0.0234,0.0852,0.1577,-14.5,-0.5,-17.5,82.16,-11.8,4.54,12979,2015-10-08 14:05:49:889
-0.5363,2.0494,9.3278,-0.7642,2.0012,9.5698,0.1809,0.0216,-0.1287,-0.0107,0.0234,0.0703,-13.5,0.75,-18.25,77.52,-11.74,4.7,13078,2015-10-08 14:05:49:988
-0.7087,1.8771,9.4427,-0.7595,1.9876,9.573,0.0508,-0.1105,-0.1303,-0.1257,0.0234,0.0639,-13.0,0.5,-17.75,73.01,-11.67,4.59,13178,2015-10-08 14:05:50:088
-0.8045,1.8962,9.5385,-0.7546,1.997,9.5715,-0.0499,-0.1008,-0.033,0.0213,0.0107,0.0362,-13.5,-0.25,-17.25,77.3,-11.69,4.56,13278,2015-10-08 14:05:50:188
-0.6704,2.0303,9.2895,-0.7632,2.0657,9.5562,0.0928,-0.0354,-0.2667,0.0426,0.0469,0.0085,-12.75,0.0,-18.0,76.52,-11.75,4.51,13378,2015-10-08 14:05:50:288
-0.747,2.0111,9.4236,-0.7739,2.0964,9.5486,0.0269,-0.0853,-0.1251,0.0724,0.0149,-0.0639,-12.5,1.0,-18.0,71.17,-12.2,4.57,13478,2015-10-08 14:05:50:388
-0.6512,2.0686,9.2895,-0.7648,2.1715,9.5326,0.1135,-0.1029,-0.2431,0.0469,-0.0575,0.0554,-12.5,0.75,-17.75,70.75,-12.6,4.59,13578,2015-10-08 14:05:50:488
-0.6895,2.0877,9.481,-0.7537,2.1948,9.5281,0.0642,-0.107,-0.0471,0.0149,-0.0746,-0.0362,-12.25,0.0,-18.0,74.19,-12.86,4.49,13678,2015-10-08 14:05:50:588
-0.6321,2.1452,9.4044,-0.7593,2.2061,9.5251,0.1272,-0.0609,-0.1207,-0.0149,0.0021,0.0724,-13.5,0.25,-17.5,76.01,-12.98,4.62,13779,2015-10-08 14:05:50:689
-0.7087,2.1452,9.3661,-0.7561,2.2138,9.5235,0.0533,-0.0963,-0.1358,-0.049,-0.049,0.0682,-13.75,0.0,-18.0,76.04,-13.13,4.55,13878,2015-10-08 14:05:50:788
-0.6895,2.1069,9.3853,-0.7794,2.1874,9.5278,0.0898,-0.0613,-0.1616,-0.0724,-0.0085,-0.0937,-13.5,-0.25,-17.25,76.01,-12.97,4.6,13979,2015-10-08 14:05:50:889
-0.747,2.1261,9.3853,-0.7675,2.1752,9.5315,0.0588,-0.0491,-0.1271,-0.0234,0.0874,0.0192,-13.75,-0.25,-17.25,77.07,-12.85,4.63,14079,2015-10-08 14:05:50:989
-0.6895,2.1452,9.3278,-0.8013,2.1765,9.5284,0.1118,-0.0313,-0.1815,-0.0469,-0.0703,0.0618,-14.5,-0.75,-18.0,80.0,-12.73,4.74,14178,2015-10-08 14:05:51:088
-0.6512,2.1835,9.3661,-0.82,2.204,9.5205,0.1304,-0.0205,-0.1544,0.0256,-0.0575,-0.0107,-14.0,-0.75,-17.25,80.59,-12.94,4.88,14278,2015-10-08 14:05:51:188
-0.6512,2.1835,9.3661,-0.8177,2.2244,9.516,0.1664,-0.0408,-0.1499,-0.049,0.0831,0.0447,-14.25,-1.0,-17.5,80.51,-13.05,4.95,14378,2015-10-08 14:05:51:288
-0.6895,2.1644,9.3087,-0.8091,2.2227,9.5171,0.1004,-0.0775,-0.1318,-0.0575,0.0107,0.0021,-13.75,0.0,-17.75,76.3,-13.03,4.89,14478,2015-10-08 14:05:51:388
-0.6895,2.1452,9.347,-0.8204,2.1877,9.5242,0.1309,-0.0042,-0.139,-0.0107,0.0767,-0.0682,-14.25,0.0,-17.25,77.09,-12.91,4.79,14578,2015-10-08 14:05:51:488
-0.6704,2.1835,9.2703,-0.8314,2.1766,9.5258,0.161,-0.0123,-0.198,-0.1065,0.0639,-0.0383,-15.75,-0.5,-17.5,78.85,-12.76,4.99,14678,2015-10-08 14:05:51:588
-0.7087,2.1261,9.3853,-0.8153,2.1193,9.5401,0.1213,4.0E-4,-0.1522,-0.0256,0.0405,0.1406,-14.0,-0.25,-17.5,77.52,-12.52,4.94,14778,2015-10-08 14:05:51:688
-0.6512,2.1069,9.3661,-0.8209,2.1011,9.5437,0.1697,0.0058,-0.1776,0.0256,0.0298,-0.0213,-15.0,-0.5,-17.25,78.43,-12.39,4.93,14879,2015-10-08 14:05:51:789
-0.6704,2.1069,9.3853,-0.8357,2.1131,9.5397,0.1874,0.0215,-0.137,-0.0234,-0.098,-0.0277,-15.0,0.0,-17.0,78.38,-12.44,4.9,14978,2015-10-08 14:05:51:888
-0.6704,2.0877,9.3661,-0.8411,2.1169,9.5384,0.1327,-0.0036,-0.1162,-0.0618,-0.0021,-0.0043,-14.0,-1.5,-17.0,81.14,-12.43,5.03,15078,2015-10-08 14:05:51:988
-0.6704,2.0877,9.3853,-0.8284,2.1374,9.535,0.1517,-0.0329,-0.1689,0.0256,-0.0085,-0.0107,-14.75,-0.5,-17.0,78.29,-12.51,4.85,15179,2015-10-08 14:05:52:089
-0.6704,2.1452,9.2703,-0.8126,2.1248,9.5392,0.1374,0.0685,-0.3097,-0.032,-0.0554,0.1278,-14.5,0.0,-17.25,77.54,-12.5,4.93,15279,2015-10-08 14:05:52:189
-0.6895,2.0877,9.3853,-0.7655,2.1046,9.5475,0.0504,-0.0048,-0.1462,-0.098,0.0597,0.0085,-14.25,0.0,-18.25,76.8,-12.39,4.58,15379,2015-10-08 14:05:52:289
-0.6704,2.0877,9.3661,-0.7809,2.0881,9.5499,0.1101,0.0222,-0.1654,-0.0298,-0.0043,0.1236,-15.0,0.0,-17.75,77.58,-12.32,4.62,15478,2015-10-08 14:05:52:388
-0.6895,2.1069,9.3661,-0.8004,2.0913,9.5476,0.0673,0.0328,-0.1815,0.0085,-0.0554,0.017,-15.0,0.0,-17.75,77.81,-12.31,4.82,15578,2015-10-08 14:05:52:488
-0.5938,2.1452,9.4427,-0.7944,2.126,9.5404,0.2006,0.0192,-0.0977,0.0128,0.0362,0.0788,-15.0,-1.0,-17.5,77.73,-12.37,4.76,15679,2015-10-08 14:05:52:589
-0.7661,2.1452,9.3278,-0.8235,2.1353,9.5359,0.0573,0.0099,-0.2081,0.0107,-0.0192,-0.0213,-14.75,-0.25,-17.0,77.45,-12.54,4.81,15778,2015-10-08 14:05:52:688
-0.5555,2.0877,9.4044,-0.8427,2.1122,9.5393,0.2873,-0.0244,-0.1349,-0.098,-0.0192,-0.0383,-14.5,-0.75,-16.75,81.03,-12.54,4.98,15879,2015-10-08 14:05:52:789
-0.747,2.1261,9.3278,-0.8626,2.1098,9.5381,0.1156,0.0163,-0.2103,-0.0852,-0.0916,-0.0043,-14.0,-2.0,-17.0,84.78,-12.39,5.11,15978,2015-10-08 14:05:52:888
-0.6321,2.1069,9.4044,-0.8241,2.1205,9.5391,0.1921,-0.0136,-0.1347,0.0213,-0.1321,-0.0298,-14.5,-1.75,-17.0,84.67,-12.49,5.07,16079,2015-10-08 14:05:52:989
-0.6512,2.1261,9.4044,-0.8328,2.1401,9.534,0.1641,-0.041,-0.1468,0.0874,0.0021,-0.1087,-15.0,-1.25,-17.0,84.61,-12.5,4.91,16179,2015-10-08 14:05:53:089
-0.5555,2.1069,9.481,-0.821,2.1726,9.5276,0.2713,-0.0522,-0.0492,0.147,-0.0746,-0.0703,-16.25,-1.25,-17.0,81.46,-12.73,5.0,16278,2015-10-08 14:05:53:188
-0.5363,1.8004,10.343,-0.6432,2.4613,9.4709,0.1069,-0.6609,0.872,0.9673,-0.3473,-0.2152,-14.75,-0.25,-17.5,77.93,-12.9,4.82,16378,2015-10-08 14:05:53:288
0.9577,2.4325,10.2089,0.1141,3.9704,8.9662,0.8436,-1.5379,1.2426,2.955,-1.4381,-0.2471,-14.75,-1.75,-17.75,78.59,-14.54,3.88,16479,2015-10-08 14:05:53:389
2.8156,6.11,5.5545,1.2176,6.2338,7.4718,1.598,-0.1238,-1.9173,2.2861,-1.093,-0.2898,-18.25,-6.25,-15.25,71.68,-35.99,-7.49,16578,2015-10-08 14:05:53:488
1.6472,6.8761,5.3822,1.1264,7.0555,6.7173,0.5208,-0.1793,-1.3351,1.1462,-0.6029,-0.9673,-21.75,-12.75,-9.75,88.04,-46.01,-9.52,16678,2015-10-08 14:05:53:588
0.498,7.7764,4.7501,0.9089,7.681,6.0288,-0.4109,0.0954,-1.2787,0.0746,-0.995,-1.0333,-22.0,-16.75,-5.25,101.12,-51.56,-8.57,16779,2015-10-08 14:05:53:689
0.0958,7.8147,5.1523,0.8151,7.8631,5.8033,-0.7194,-0.0484,-0.651,0.375,-1.3998,-0.8096,-16.5,-14.0,1.25,114.77,-53.3,-8.0,16879,2015-10-08 14:05:53:789
-0.0766,7.6231,3.9648,0.8784,8.0957,5.4643,-0.955,-0.4726,-1.4995,-0.2514,-1.0887,-0.784,-11.25,-9.5,5.0,123.5,-55.64,-9.13,16979,2015-10-08 14:05:53:889
-0.0958,7.106,4.9799,0.8446,8.1243,5.427,-0.9403,-1.0183,-0.4471,0.2727,-1.3657,-0.6221,-7.0,-8.0,6.0,130.37,-55.41,-8.55,17079,2015-10-08 14:05:53:989
0.3639,7.106,4.7884,1.0924,8.1789,5.2993,-0.7285,-1.0729,-0.5109,-0.196,-0.8607,-0.2834,-3.5,-6.5,6.75,144.95,-56.72,-10.47,17179,2015-10-08 14:05:54:089
0.6129,7.7764,5.5354,1.1657,8.0803,5.4333,-0.5528,-0.3039,0.1021,-0.2834,-0.3537,-0.3047,0.25,-3.75,6.0,169.95,-55.48,-12.11,17279,2015-10-08 14:05:54:189
0.4788,9.347,6.2441,1.1148,7.9245,5.6684,-0.636,1.4225,0.5757,-0.4538,-0.0575,-0.081,3.25,-1.75,3.5,204.27,-53.91,-11.13,17378,2015-10-08 14:05:54:288
1.0151,8.7915,8.7149,0.7483,7.4082,6.3819,0.2668,1.3833,2.333,-0.6626,0.6136,-0.2471,7.25,-0.25,0.25,263.74,-50.01,-8.15,17478,2015-10-08 14:05:54:388
1.4174,7.0485,9.2703,0.4565,6.9804,6.8729,0.2015,0.3918,1.9815,-0.5326,-0.4772,-0.5135,8.75,2.25,-2.25,271.41,-48.29,-5.24,17579,2015-10-08 14:05:54:489
3.0071,4.6735,6.0142,1.0516,6.5995,7.1772,1.9555,-1.926,-1.1629,-1.0994,-1.4828,0.1832,6.25,5.25,-6.0,298.34,-44.4,-4.68,17678,2015-10-08 14:05:54:588
5.0949,5.8419,9.098,2.621,5.6313,7.5887,1.746,0.0573,0.609,-1.4828,-2.0091,0.2621,1.25,6.5,-10.75,338.5,-35.05,-19.05,17779,2015-10-08 14:05:54:689
2.6624,4.9991,8.2744,4.0655,4.5418,7.6821,-1.6713,-0.1939,0.8413,-1.3103,-1.6469,-0.3388,-3.0,9.0,-16.5,344.3,-29.15,-26.15,17878,2015-10-08 14:05:54:788
4.4436,3.6966,6.3782,5.1794,3.9939,7.3071,-1.4043,-0.8091,-0.0387,-1.3465,-1.2911,-0.5454,-9.75,10.5,-21.5,348.38,-24.03,-35.33,17979,2015-10-08 14:05:54:889
4.9991,2.9497,6.2441,5.8473,3.7805,6.9056,-0.8865,-0.7159,-0.6998,-0.2599,-1.6235,-1.0227,-18.0,15.75,-24.5,353.73,-22.59,-36.55,18080,2015-10-08 14:05:54:990
5.1715,1.992,4.8842,6.3752,4.1117,6.2146,-1.2803,-2.1197,-1.3304,-0.2961,-2.1199,-0.98,-22.5,16.5,-23.0,357.49,-23.02,-41.97,18178,2015-10-08 14:05:55:088
6.1675,3.0454,5.3056,7.0646,4.3731,5.2095,-1.4526,-1.6533,0.6132,-0.7222,-2.0091,-0.6306,-23.25,14.0,-20.0,354.64,-26.48,-53.59,18278,2015-10-08 14:05:55:188
3.2753,0.5171,2.7198,7.6617,4.2085,4.445,-3.2563,-2.7529,-1.0548,-1.0567,-1.6128,0.2642,-27.0,12.0,-15.5,1.37,-25.41,-59.88,18378,2015-10-08 14:05:55:288
8.2361,-2.2601,2.2601,9.0554,2.2556,3.0139,-2.0643,-3.0408,-1.29,-2.7122,-1.7577,3.2554,-33.0,13.5,-12.75,356.43,-19.3,-67.29,18478,2015-10-08 14:05:55:388
11.0899,-6.2249,4.2138,9.4066,-2.1588,1.7396,1.6834,-4.0661,2.4741,-3.0722,-1.9367,3.2235,-40.25,24.75,-8.0,357.8,12.72,-79.52,18578,2015-10-08 14:05:55:488
15.2654,-2.4517,4.9416,8.2575,-5.2768,-0.3735,6.644,2.4995,5.4875,-0.7755,-1.583,1.9153,-41.5,43.0,-0.5,352.57,32.55,-92.59,18678,2015-10-08 14:05:55:588
14.4418,-8.0062,1.2258,8.1798,-5.4055,-0.2039,5.8406,-2.8689,1.1807,-1.0099,0.6157,0.2024,-32.25,45.25,0.0,355.45,33.7,-92.81,18779,2015-10-08 14:05:55:689
7.7572,0.4022,-0.5938,8.1367,-5.4737,0.0552,-0.3603,5.7419,-0.5915,-0.3324,1.2336,-0.2407,-27.0,45.5,-1.25,357.97,33.93,-89.61,18878,2015-10-08 14:05:55:788
12.9478,-5.9759,-1.5897,8.6752,-4.5624,0.3078,4.2726,-1.4135,-1.8975,-0.4495,0.0277,-1.9622,-24.5,47.0,-2.0,357.84,27.73,-87.97,18978,2015-10-08 14:05:55:888
6.857,-3.8882,0.0575,9.3642,-2.8504,0.5985,-1.9326,-1.4784,-0.0622,-0.6221,0.7627,-1.9004,-27.0,38.0,-4.25,352.9,24.27,-88.57,19079,2015-10-08 14:05:55:989
6.3398,-4.2713,-0.7661,9.6373,-1.3878,1.1693,-3.2974,-2.8835,-1.9354,-0.914,0.6605,-0.9758,-33.25,34.25,-4.0,359.9,11.38,-84.39,19179,2015-10-08 14:05:56:089
6.1292,-3.8882,0.4788,9.5525,-1.6975,1.4281,-3.4233,-2.1907,-0.9492,-1.1334,0.4218,0.3792,-35.75,31.5,-4.25,0.72,7.98,-82.46,19278,2015-10-08 14:05:56:188
9.1746,-3.2753,-0.3256,9.2083,-3.2,1.0662,-0.0337,-0.0752,-1.3919,-0.5923,-0.3835,1.6171,-37.75,30.0,-4.25,1.43,19.05,-83.4,19379,2015-10-08 14:05:56:289
11.7029,-2.0111,1.5897,8.8829,-4.1184,0.5498,2.6092,2.1456,1.1357,-1.2037,0.4751,0.5007,-36.25,32.25,-3.0,357.63,21.8,-84.78,19479,2015-10-08 14:05:56:389
10.0748,-2.0494,1.1684,8.828,-4.1883,0.8338,1.266,2.2155,0.4878,-0.2961,0.4176,0.1641,-33.0,35.25,0.25,9.99,25.28,-84.6,19579,2015-10-08 14:05:56:489
10.9942,-3.0454,1.2258,8.7602,-4.3075,0.9351,2.2914,1.5111,0.5589,0.0575,-0.3281,0.5561,-30.25,37.5,2.5,16.32,25.53,-83.61,19679,2015-10-08 14:05:56:589
10.4579,-2.3176,0.996,8.7598,-4.3082,0.9358,1.2928,1.9008,-0.1008,1.1484,-0.2663,-0.2429,-29.25,39.25,2.75,15.08,26.06,-83.9,19778,2015-10-08 14:05:56:688
9.3661,-4.0223,0.747,9.076,-3.5612,1.056,0.2901,-0.4611,-0.309,0.7691,-0.2898,-0.8266,-27.75,41.0,1.5,10.5,21.29,-83.36,19879,2015-10-08 14:05:56:789
8.8873,-3.9073,1.0151,9.3459,-2.8586,0.8085,-0.1193,-1.3493,0.138,0.7031,-0.5198,-0.5135,-28.25,40.5,-0.5,5.03,17.8,-84.49,19979,2015-10-08 14:05:56:889
8.1403,-4.118,0.8236,9.5112,-2.3059,0.6251,-1.3709,-1.8121,0.1985,0.2173,-0.0937,-0.8735,-31.5,38.25,-2.5,0.07,13.6,-86.24,20079,2015-10-08 14:05:56:989
7.8338,-4.3862,0.1532,9.5918,-1.9595,0.5722,-1.758,-2.4266,-0.419,-0.1001,-0.0511,-0.2258,-34.0,35.0,-3.25,357.98,11.53,-86.59,20178,2015-10-08 14:05:57:088
8.2361,-4.5969,0.0,9.552,-2.156,0.5312,-1.2357,-2.4054,-0.5724,-1.2613,0.4389,0.3899,-36.25,32.25,-3.0,357.55,12.7,-86.82,20279,2015-10-08 14:05:57:189
9.6917,-5.8035,0.1724,9.2878,-3.0418,0.8089,1.521,-3.7929,-0.863,-2.1391,1.044,0.7372,-37.25,30.5,-1.75,3.87,18.07,-85.02,20379,2015-10-08 14:05:57:289
8.5042,-3.3327,1.4557,8.5873,-4.7359,0.016,-0.0831,1.4031,1.4396,-2.4416,0.3622,1.6725,-35.25,33.0,0.5,6.52,25.97,-88.95,20478,2015-10-08 14:05:57:388
9.9024,-3.0071,-0.0958,8.1737,-5.4039,-0.3987,1.7287,2.3968,0.3029,-0.49,-0.49,0.3686,-30.75,38.25,6.75,22.9,33.19,-91.43,20578,2015-10-08 14:05:57:488
9.5193,-4.9416,0.7661,8.4824,-4.8576,-0.7896,0.1559,-0.1798,2.0346,-2.595,1.4019,-0.5326,-25.75,40.25,8.75,17.34,32.31,-94.85,20679,2015-10-08 14:05:57:589
6.8378,-4.6543,1.2641,8.6437,-4.6224,-0.299,-1.8059,-0.0319,1.5631,-0.9779,0.8309,0.3579,-25.25,37.25,13.0,21.81,28.29,-94.02,20779,2015-10-08 14:05:57:689
8.5425,-3.2178,0.2873,8.1923,-5.3879,0.1642,0.3502,2.1701,0.1231,-0.3878,0.5987,1.2101,-26.75,35.25,14.25,41.68,31.49,-89.95,20879,2015-10-08 14:05:57:789
9.5577,-2.8922,0.3256,7.7958,-5.9394,0.3454,1.8193,3.0472,-0.1156,0.1491,0.1513,0.8075,-27.25,36.0,13.75,48.61,36.45,-87.79,20979,2015-10-08 14:05:57:889
10.4004,-3.2561,0.498,7.7064,-6.0443,0.4977,2.828,2.769,0.211,0.9119,-0.6477,0.2983,-25.5,38.0,12.5,44.07,38.05,-86.3,21079,2015-10-08 14:05:57:989
12.2775,-4.1372,0.498,7.9454,-5.731,0.4425,4.2171,1.6513,-0.0978,0.8607,-1.0461,-0.6519,-22.0,39.25,11.0,32.49,35.76,-86.81,21179,2015-10-08 14:05:58:089
9.2895,-4.118,1.8771,8.5873,-4.7298,0.2396,0.7788,1.1864,1.3885,0.9119,-0.5838,-1.5915,-21.0,41.5,9.5,25.96,31.68,-88.02,21278,2015-10-08 14:05:58:188
9.9024,-6.0334,2.0686,9.2951,-3.1246,0.0929,0.6648,-2.9854,1.9757,1.4871,-0.8863,-1.7193,-24.0,39.0,6.25,16.99,24.79,-88.48,21378,2015-10-08 14:05:58:288
9.6917,-5.8993,1.3599,9.6552,-1.7122,-0.1231,0.0365,-4.1871,1.483,0.8032,-0.5049,-2.0048,-28.25,34.5,3.75,7.02,10.06,-90.73,21478,2015-10-08 14:05:58:388
7.4891,-5.3822,1.1109,9.8022,-0.225,0.1929,-2.3131,-5.1571,0.918,-0.0277,0.5092,-1.3401,-34.75,30.5,2.5,5.02,5.2,-90.83,21578,2015-10-08 14:05:58:488
5.8993,-4.5011,0.9194,9.7879,0.0963,0.5986,-3.7715,-4.5561,0.2265,0.3004,0.3089,0.0426,-39.5,22.5,0.75,8.22,-0.56,-86.5,21679,2015-10-08 14:05:58:589
6.359,-3.9073,-1.3791,9.7589,-0.6381,0.7266,-3.1509,-3.3459,-2.2589,-0.179,-0.0149,1.0461,-41.75,20.25,-0.75,8.81,1.28,-85.65,21778,2015-10-08 14:05:58:688
10.343,-6.2058,-0.8811,9.3591,-2.9235,0.1765,1.8266,-3.9526,-1.6131,-1.0312,-0.1981,2.3159,-40.5,22.5,-3.5,357.42,8.04,-86.76,21879,2015-10-08 14:05:58:789
10.5345,-3.3136,0.4022,7.9978,-5.6558,-0.4664,1.8739,2.2012,0.8001,-1.0653,0.0362,2.7889,-35.75,29.25,-0.75,314.09,35.22,-93.34,21979,2015-10-08 14:05:58:889
11.8561,-4.0223,-0.249,7.2759,-6.4797,-1.1161,4.5802,2.4574,0.8671,-1.3337,0.1023,1.0312,-25.75,36.25,1.75,348.71,41.36,-98.72,22079,2015-10-08 14:05:58:989
8.3701,-3.7541,1.0534,7.2406,-6.4632,-1.4038,1.1295,2.7091,2.4573,-0.9758,0.5369,0.2983,-18.25,40.5,6.75,10.91,41.5,-100.83,22179,2015-10-08 14:05:59:089
9.6151,-3.2561,0.1532,7.2277,-6.4904,-1.3436,2.3874,3.2343,1.4969,0.1129,-0.0277,0.5539,-15.5,41.5,11.0,21.6,41.44,-100.53,22279,2015-10-08 14:05:59:189
9.73,-3.2178,-0.249,7.548,-6.2067,-0.821,2.182,2.9889,0.572,0.9183,0.0575,-0.3963,-13.5,39.75,12.25,25.5,40.71,-98.48,22378,2015-10-08 14:05:59:288
9.1554,-3.62,-1.2067,8.0941,-5.5322,-0.2251,1.0613,1.9121,-0.9816,1.4083,-0.3771,-0.8586,-13.0,40.75,9.75,23.8,36.2,-92.76,22478,2015-10-08 14:05:59:388
11.7795,-5.7078,-0.5363,8.5979,-4.7156,-0.104,3.1816,-0.9922,-0.4323,1.1249,-0.9545,-0.3515,-15.5,41.75,5.75,11.13,28.74,-90.69,22579,2015-10-08 14:05:59:489
11.1857,-3.984,1.1492,8.8077,-4.2996,-0.3293,2.378,0.3156,1.4785,1.1569,-1.1462,-1.044,-17.5,42.0,1.75,2.58,26.0,-92.14,22679,2015-10-08 14:05:59:589
9.9024,-6.8378,1.2258,9.5317,-2.2502,-0.503,0.3707,-4.5876,1.7289,1.2421,-0.5646,-2.1348,-21.5,41.5,-1.25,356.66,13.27,-93.02,22778,2015-10-08 14:05:59:688
8.5425,-5.5354,1.0534,9.676,-1.1936,-1.0582,-0.8282,-4.4523,1.8521,1.0141,-0.9545,-1.3998,-29.0,36.0,-3.5,349.23,6.99,-96.24,22878,2015-10-08 14:05:59:788
7.3741,-4.7501,0.8045,9.7212,-0.6821,-1.0974,-2.4061,-3.9805,1.9613,0.4943,-0.1683,-0.5667,-34.5,30.0,-3.75,344.25,3.99,-96.44,22978,2015-10-08 14:05:59:888
7.6423,-4.3287,0.2298,9.7341,-0.6765,-0.9795,-2.0874,-3.6912,1.2773,-0.1087,0.3196,-0.0511,-37.75,26.5,-3.5,344.76,3.53,-96.44,23079,2015-10-08 14:05:59:989
6.9719,-3.8116,-1.1109,9.7576,-0.9214,-0.3341,-2.7831,-2.843,-0.842,-0.9417,0.9012,0.441,-39.5,24.5,-3.25,348.47,5.39,-91.96,23179,2015-10-08 14:06:00:089
9.5002,-6.2632,-0.8045,9.6161,-1.9217,0.0925,-0.1925,-4.284,-1.6631,-1.4104,0.2237,1.9153,-39.75,24.25,-4.75,343.61,11.3,-89.45,23279,2015-10-08 14:06:00:189
10.7069,-4.7884,-1.1684,8.7523,-4.4201,-0.1716,2.2801,-0.9429,-1.035,-1.1654,-0.1449,2.8123,-36.75,28.75,-5.0,328.27,26.79,-91.12,23379,2015-10-08 14:06:00:289
10.5345,-2.7581,-0.9002,7.7291,-5.9988,-0.668,2.8054,3.2406,-0.2323,-0.7457,-0.0852,1.5638,-29.5,36.0,-3.0,320.72,34.92,-93.78,23478,2015-10-08 14:06:00:388
9.0214,-3.5817,0.6895,7.5998,-6.0348,-1.4124,2.2835,2.2807,2.121,-1.9111,1.4786,-0.1704,-21.25,42.5,1.0,340.97,39.35,-99.34,23578,2015-10-08 14:06:00:488
7.5274,-4.1563,0.4405,8.0665,-5.4224,-1.3036,-0.5014,1.3961,1.6584,-1.2357,0.8394,-0.2067,-18.75,43.0,6.25,2.14,35.45,-99.7,23679,2015-10-08 14:06:00:589
7.8338,-3.7158,-0.1149,8.0095,-5.5429,-1.138,-0.2231,1.7426,1.0946,-0.2855,0.6456,0.6285,-19.75,39.5,11.0,21.1,34.42,-98.09,23779,2015-10-08 14:06:00:689
10.1514,-3.2753,-1.6281,7.8357,-5.8606,-0.6526,2.3158,2.5854,-0.9755,0.7031,0.0575,0.4964,-21.0,40.0,13.0,29.52,36.27,-95.77,23879,2015-10-08 14:06:00:789
11.5688,-4.2904,-1.2067,7.915,-5.772,-0.4545,2.9979,2.1014,-1.0685,0.9076,-0.4602,0.0447,-18.25,41.75,11.0,23.39,36.06,-93.29,23979,2015-10-08 14:06:00:889
11.3581,-3.4668,-0.3065,8.1443,-5.4407,-0.4894,3.2138,1.9739,0.183,1.1888,-0.995,-0.767,-17.5,43.75,8.0,14.5,33.7,-93.44,24079,2015-10-08 14:06:00:989
9.9407,-4.6352,1.0918,8.917,-4.0352,-0.612,1.0237,-0.6,1.7037,1.2378,-1.0141,-1.8727,-18.75,43.75,5.5,11.32,28.53,-93.66,24179,2015-10-08 14:06:01:089
11.0899,-5.5929,0.5363,9.4054,-2.5734,-1.0425,1.6845,-3.0195,1.5788,1.2251,-1.1484,-2.1369,-23.5,40.25,3.75,5.26,18.01,-95.22,24278,2015-10-08 14:06:01:188
8.5617,-5.7652,0.8236,9.7033,-1.0012,-1.0065,-0.2606,-4.7832,1.7918,-0.2024,0.6051,-2.2157,-30.5,36.0,2.0,359.58,9.09,-96.87,24378,2015-10-08 14:06:01:288
6.9719,-4.616,-0.0766,9.7884,0.5154,-0.3027,-2.759,-5.2847,0.5326,0.4985,0.3047,-1.4168,-37.5,27.25,0.75,0.94,-1.1,-92.5,24478,2015-10-08 14:06:01:388
6.4165,-3.9265,-1.1492,9.7611,0.9305,-0.1582,-3.3303,-4.8665,-0.8203,0.2983,0.2535,-0.0959,-41.75,18.75,-1.0,355.8,-5.44,-90.93,24578,2015-10-08 14:06:01:488
8.6191,-5.8035,-2.624,9.8055,0.0935,-0.1138,-1.5503,-5.3224,-2.2995,-0.686,-0.049,1.3039,-42.25,14.75,-1.75,350.82,-0.55,-90.67,24679,2015-10-08 14:06:01:589
9.8833,-5.7461,-0.9577,9.3494,-2.9247,-0.453,0.382,-3.3486,-0.5725,-2.0197,0.1747,2.693,-41.5,17.25,-2.25,342.66,7.06,-91.51,24778,2015-10-08 14:06:01:688
10.3813,-4.2138,-0.3831,8.3115,-5.1096,-0.9909,1.8747,0.5959,0.4388,-1.2229,-0.4858,2.2626,-37.0,24.5,0.25,296.63,31.4,-96.8,24878,2015-10-08 14:06:01:788
11.224,-4.2138,0.2873,7.7379,-5.7927,-1.6552,3.2524,1.6759,2.3573,-2.9657,1.2996,0.9971,-29.0,33.25,4.75,352.76,36.21,-102.07,24978,2015-10-08 14:06:01:888
8.1977,-4.2521,1.1684,7.6778,-5.8058,-1.8748,0.3264,1.5306,2.8938,-2.0027,1.2698,0.7904,-23.75,38.0,11.75,21.51,36.3,-103.72,25078,2015-10-08 14:06:01:988
9.3661,-3.1987,0.1532,7.4534,-6.0902,-1.8781,1.7595,2.6425,2.2229,-0.8906,0.9033,1.1313,-23.25,35.0,17.25,44.64,38.39,-104.14,25178,2015-10-08 14:06:02:088
10.1131,-2.2793,-0.747,7.3687,-6.3394,-1.2982,2.8019,4.0984,0.4937,0.5156,0.4005,0.2407,-22.0,34.75,19.75,56.18,40.29,-101.61,25278,2015-10-08 14:06:02:188
11.9327,-3.5243,-2.1835,7.5752,-6.1689,-0.855,3.6488,3.3342,-1.2711,1.2357,-0.3856,-0.3324,-21.5,36.5,19.5,50.92,38.98,-96.44,25379,2015-10-08 14:06:02:289
11.0899,-3.7924,-0.5938,8.2755,-5.2163,-0.6903,2.8144,1.4239,0.0966,0.7627,-0.2407,-1.3742,-21.0,37.75,16.75,36.82,32.13,-94.77,25478,2015-10-08 14:06:02:388
9.3661,-4.7118,0.5746,9.0971,-3.6144,-0.5914,0.0765,-0.5359,1.1293,1.3763,-0.7159,-1.7066,-23.75,36.5,14.75,28.01,21.63,-93.72,25578,2015-10-08 14:06:02:488
11.1857,-5.9568,0.2873,9.4727,-2.3424,-0.9753,1.713,-3.6144,1.2626,0.6413,-0.6732,-1.7833,-28.0,32.25,12.75,22.66,13.82,-95.88,25678,2015-10-08 14:06:02:588
8.3127,-5.5354,1.3982,9.7313,-1.0143,-0.6658,-1.4186,-4.5211,2.064,-0.0724,0.8288,-1.8109,-29.5,30.75,11.25,17.65,11.35,-96.23,25779,2015-10-08 14:06:02:689
6.608,-4.9033,0.4405,9.8016,-0.2604,-0.175,-3.0021,-4.9302,1.0752,0.6669,0.1087,-1.0759,-33.0,25.75,10.5,22.52,1.52,-91.02,25879,2015-10-08 14:06:02:789
6.5122,-3.9648,-0.5555,9.8066,-0.0146,-0.0294,-3.3327,-4.1034,-0.392,-0.0597,0.0724,0.3622,-36.0,17.75,8.75,25.54,-0.37,-90.46,25978,2015-10-08 14:06:02:888
7.7955,-3.7924,-1.7238,9.7556,-0.9762,-0.2122,-1.5698,-2.8791,-1.5832,-0.9204,-0.0192,0.7819,-38.0,15.25,6.75,25.8,0.97,-90.14,26078,2015-10-08 14:06:02:988
11.1282,-5.9951,-0.5171,9.3019,-3.0527,-0.5706,1.6863,-3.3956,-0.004,-2.3628,0.2812,2.2115,-37.75,15.25,6.25,24.92,5.71,-91.25,26179,2015-10-08 14:06:03:089
10.6303,-2.9497,-0.5938,8.3138,-5.0729,-1.1472,2.0751,1.9547,0.5541,0.1257,-1.2229,2.1391,-36.75,16.75,8.0,57.49,18.14,-93.51,26279,2015-10-08 14:06:03:189
10.3621,-4.7118,-0.2298,7.794,-5.6536,-1.8602,2.5681,0.9418,1.6304,-2.3372,0.62,0.7542,-32.75,22.75,11.5,101.5,34.88,-101.86,26379,2015-10-08 14:06:03:289
8.2552,-4.2521,0.4022,7.7979,-5.5264,-2.196,0.2764,1.3515,2.6718,-2.6845,1.4168,0.5816,-26.0,27.0,14.75,53.91,34.81,-105.15,26479,2015-10-08 14:06:03:389
8.0062,-3.4668,0.6704,7.7282,-5.5529,-2.3686,0.9472,2.3985,3.1298,-1.0717,0.4091,0.9715,-22.5,28.0,19.25,55.0,34.0,-106.43,26578,2015-10-08 14:06:03:488
11.0899,-1.7047,-1.2641,7.626,-5.7524,-2.219,3.5668,3.9882,1.1534,0.4304,0.3345,0.1001,-23.75,25.0,22.75,79.01,35.77,-107.63,26678,2015-10-08 14:06:03:588
9.3278,-1.8579,-2.1452,8.11,-5.2723,-1.613,1.2178,3.4144,-0.5322,0.9779,0.2557,-0.62,-23.25,22.75,25.25,80.1,34.06,-103.06,26778,2015-10-08 14:06:03:688
11.8178,-4.0989,-1.6281,8.589,-4.5758,-1.2086,3.2287,0.4769,-0.4194,1.142,-0.343,-0.865,-21.75,22.0,27.0,74.39,29.33,-98.66,26878,2015-10-08 14:06:03:788
8.8298,-2.9688,-0.5938,8.9743,-3.7989,-1.0957,-0.1445,0.8301,0.5019,1.0013,-0.3238,-1.2975,-24.0,22.0,25.25,68.22,24.74,-97.33,26979,2015-10-08 14:06:03:889
10.5919,-4.4819,-0.1724,9.4429,-2.4058,-1.1019,0.8924,-1.5277,0.8982,0.7116,-0.3963,-1.7172,-25.0,22.75,24.5,59.47,18.61,-96.58,27079,2015-10-08 14:06:03:989
10.7452,-5.6695,-0.1341,9.6788,-1.1856,-1.0416,1.3523,-4.5204,0.8951,0.228,-0.1619,-1.6,-27.5,23.5,23.25,47.94,11.19,-96.58,27178,2015-10-08 14:06:04:088
7.5848,-4.118,-0.0383,9.7955,-0.1467,-0.4439,-1.9167,-3.8848,0.5915,-0.1385,0.8927,-1.3593,-30.0,22.25,22.75,45.54,2.82,-94.08,27279,2015-10-08 14:06:04:189
6.8761,-4.2904,-0.7661,9.7933,0.5018,-0.0974,-3.2031,-4.5309,-0.9188,0.2919,0.1236,-0.3132,-34.0,17.5,21.5,48.41,-2.1,-90.53,27378,2015-10-08 14:06:04:288
6.5122,-3.735,-1.1492,9.8062,-0.0038,-0.0907,-3.294,-3.7312,-1.0585,-0.5667,-0.066,0.8991,-38.25,10.5,19.75,57.8,-2.07,-90.54,27479,2015-10-08 14:06:04:389
9.3278,-4.3287,-1.3024,9.6677,-1.5855,-0.4387,-0.6631,-2.9444,-0.784,-0.8714,-0.392,2.0517,-41.0,7.25,17.75,80.0,5.54,-91.67,27578,2015-10-08 14:06:04:488
13.4458,-6.5314,-0.1341,8.8961,-3.9406,-1.2256,4.5498,-2.4567,1.2256,-1.5574,-0.2706,2.7526,-41.25,8.25,18.0,97.93,13.29,-93.77,27678,2015-10-08 14:06:04:588
10.0748,-3.4668,-0.2107,8.05,-5.353,-1.6473,2.1707,2.0916,1.4573,-1.8046,0.6136,1.8962,-37.5,13.75,20.75,126.85,27.74,-99.34,27778,2015-10-08 14:06:04:688
9.347,-4.1563,-0.1724,7.4692,-5.8421,-2.5002,1.8415,1.6808,2.229,-2.2243,0.2898,0.8352,-31.0,20.5,24.75,117.08,34.69,-102.76,27878,2015-10-08 14:06:04:788
8.1211,-4.616,0.8428,7.5098,-5.5433,-3.0074,0.6488,1.0075,3.7943,-2.3862,1.093,0.5262,-25.75,23.0,27.25,93.75,35.56,-111.03,27978,2015-10-08 14:06:04:888
7.6806,-3.7924,0.1341,7.7671,-5.3118,-2.7617,-0.0357,1.543,2.9911,-0.9268,1.0631,0.3941,-24.0,20.0,31.25,93.91,33.02,-110.56,28079,2015-10-08 14:06:04:989
9.4044,-2.4517,-1.7238,7.9423,-5.2841,-2.2734,1.4621,2.8325,0.5496,-0.4964,0.8693,0.424,-26.0,13.0,31.25,108.8,32.75,-107.21,28179,2015-10-08 14:06:05:089
9.6726,-1.9154,-2.1835,8.1116,-5.2516,-1.6709,1.5609,3.3363,-0.5126,0.6818,0.6072,0.2216,-29.5,10.25,29.5,114.89,32.49,-103.33,28279,2015-10-08 14:06:05:189
11.7412,-4.3096,-2.8539,8.3693,-5.0028,-1.0476,3.3719,0.6932,-1.8063,1.8685,-0.5412,-0.2983,-32.0,8.25,27.5,117.02,31.46,-98.22,28378,2015-10-08 14:06:05:288
10.4962,-3.1795,-1.494,8.6712,-4.4641,-1.0255,1.8249,1.2846,-0.4685,0.7563,-0.5241,-0.7436,-32.75,9.75,25.25,114.58,30.08,-96.47,28479,2015-10-08 14:06:05:389
10.0556,-4.0031,0.249,9.1402,-3.4173,-0.9747,0.9155,-0.5858,1.2237,0.3686,-0.017,-1.5638,-33.25,12.0,25.0,101.76,25.15,-96.91,28579,2015-10-08 14:06:05:489
10.7643,-5.8802,0.1341,9.5802,-1.9112,-0.8592,1.1842,-3.969,0.9932,0.1917,-0.1513,-2.122,-33.75,10.5,24.75,86.64,16.84,-95.51,28679,2015-10-08 14:06:05:589
8.3701,-5.0949,0.1724,9.7797,-0.3649,-0.6289,-1.4095,-4.7299,0.8013,-0.017,0.4602,-1.5936,-35.5,4.5,25.25,85.45,5.01,-94.65,28779,2015-10-08 14:06:05:689
7.355,-4.5011,-0.5746,9.7895,0.3595,-0.454,-2.4345,-4.8606,-0.1206,-0.1214,-0.1449,-0.6072,-37.25,-4.0,24.0,88.07,0.28,-92.8,28879,2015-10-08 14:06:05:789
7.3741,-4.1946,-0.5171,9.7889,0.3239,-0.4936,-2.4147,-4.5186,-0.0235,-0.8437,0.1342,0.392,-37.75,-9.0,23.75,103.06,-2.78,-93.05,28978,2015-10-08 14:06:05:888
7.8913,-4.6352,-0.4788,9.7478,-0.9348,-0.5271,-1.8565,-3.7003,0.0482,-1.3827,-0.0341,1.1633,-38.0,-12.75,23.0,125.16,2.81,-92.75,29079,2015-10-08 14:06:05:989
11.0516,-7.0485,-0.1341,9.3593,-2.7718,-0.9441,1.6923,-4.2767,0.81,-1.8621,-0.4005,2.2903,-37.75,-10.75,21.75,135.0,12.06,-94.39,29178,2015-10-08 14:06:06:088
11.3006,-5.0949,0.2107,8.4456,-4.7139,-1.6193,2.8551,-0.381,1.83,-2.7484,0.1577,2.3351,-37.75,-7.75,22.0,147.59,25.33,-99.08,29278,2015-10-08 14:06:06:188
11.3581,-5.3247,0.5363,7.7284,-5.5074,-2.472,3.9553,0.3934,3.2573,-3.1681,0.5412,1.0567,-37.75,-3.25,22.25,160.56,34.17,-107.74,29379,2015-10-08 14:06:06:289
9.098,-5.4588,1.2833,7.9841,-4.6328,-3.3108,0.3668,-0.7302,4.8622,-3.8818,1.4104,0.1364,-38.25,-1.25,21.75,165.33,30.37,-112.24,29479,2015-10-08 14:06:06:389
6.5697,-4.5586,1.4174,8.3917,-4.0018,-3.1201,-1.5532,-0.7074,4.9849,-2.0751,1.061,0.4964,-39.25,-2.5,17.75,172.21,24.59,-111.19,29579,2015-10-08 14:06:06:489
6.9528,-3.6583,-0.2107,8.3809,-4.3232,-2.6909,-1.16,0.8181,2.212,-1.4168,0.865,1.1739,-41.75,-6.25,11.0,180.61,24.08,-110.4,29679,2015-10-08 14:06:06:589
8.4276,-3.2944,-0.5938,8.0064,-5.1203,-2.4189,1.1107,1.8642,1.5379,-0.8501,0.8245,1.7172,-42.5,-4.75,4.25,199.07,29.52,-107.12,29778,2015-10-08 14:06:06:688
10.6877,-2.5091,-0.8428,7.6111,-5.8358,-2.0457,3.0192,3.5948,1.1455,-0.7095,1.1079,1.1888,-43.5,2.25,-0.25,208.57,35.08,-106.24,29878,2015-10-08 14:06:06:788
13.9055,-3.984,-2.0877,7.5732,-6.1088,-1.225,6.0259,1.78,-0.7287,0.5497,0.4985,0.6221,-42.75,9.75,-4.75,218.01,37.94,-101.66,29978,2015-10-08 14:06:06:888
10.9942,-2.4517,-2.1835,8.0178,-5.5548,-1.0147,3.7042,3.6011,-1.8775,-1.2485,1.2655,-1.4402,-41.75,14.75,-9.75,231.01,37.04,-97.31,30078,2015-10-08 14:06:06:988
9.6151,-4.4245,-0.5938,9.0662,-3.6682,-0.7203,0.6638,-1.1202,-0.314,0.7329,-0.4325,-1.7129,-41.25,14.25,-13.25,256.33,24.74,-94.61,30179,2015-10-08 14:06:07:089
11.2815,-4.8459,-0.5555,9.4516,-2.386,-1.0701,1.8655,-2.3146,0.4942,0.0959,-0.3494,-1.7577,-42.25,6.25,-16.0,254.31,16.58,-95.96,30278,2015-10-08 14:06:07:188
9.3853,-5.4396,0.0,9.723,-0.8643,-0.942,-0.0504,-4.4987,0.9803,-0.4261,0.3601,-2.0773,-40.75,-1.25,-14.0,255.96,5.06,-95.53,30378,2015-10-08 14:06:07:288
7.5465,-5.0374,0.1149,9.7481,0.7488,-0.7637,-2.3165,-5.7287,0.8595,-0.0234,-0.0639,-1.3231,-39.5,-9.75,-13.75,250.09,1.94,-94.95,30479,2015-10-08 14:06:07:389
6.0717,-3.735,-0.5746,9.7366,0.9736,-0.6487,-3.7415,-4.632,0.0549,-0.3238,0.3345,0.2024,-36.0,-16.5,-14.75,235.59,-6.23,-94.39,30578,2015-10-08 14:06:07:488
7.3741,-3.4668,-0.6704,9.7923,0.0782,-0.524,-2.4182,-3.545,-0.1464,-0.3515,-0.3238,1.5169,-35.0,-20.5,-15.5,222.58,-2.95,-92.87,30678,2015-10-08 14:06:07:588
10.7835,-5.5737,-0.7087,9.583,-1.8824,-0.8907,1.2005,-3.6913,0.182,-1.2677,-0.4027,2.8315,-35.75,-18.5,-17.0,219.88,11.07,-95.31,30778,2015-10-08 14:06:07:688
11.5879,-3.5243,-0.1149,8.6404,-4.4376,-1.3494,3.4307,0.4541,1.3391,-1.6085,-0.1406,2.9465,-38.25,-10.25,-16.25,222.16,15.93,-96.17,30878,2015-10-08 14:06:07:788
9.9599,-2.9688,-0.4214,7.8168,-5.689,-1.6442,2.2655,2.728,1.2881,-2.0283,0.9033,1.0717,-38.5,4.25,-14.75,233.42,34.89,-101.16,30979,2015-10-08 14:06:07:889
9.9216,-4.6735,-0.0575,7.9161,-5.3775,-2.142,1.7494,0.7631,2.2946,-3.2874,1.6362,0.1896,-36.0,16.5,-15.5,261.42,34.41,-104.49,31079,2015-10-08 14:06:07:989
7.4699,-3.984,0.7853,8.4051,-4.643,-1.9916,-1.0963,0.6102,2.5853,-1.1995,1.0035,-0.4325,-33.25,21.25,-13.5,272.46,31.45,-104.96,31179,2015-10-08 14:06:08:089
8.4467,-3.5626,-1.4557,8.5455,-4.5283,-1.6248,-0.2291,0.866,0.281,-0.1577,0.4005,0.6242,-32.5,25.5,-13.25,294.11,26.61,-101.69,31279,2015-10-08 14:06:08:189
9.5577,-2.739,-2.4134,8.3814,-4.9062,-1.3606,1.1762,2.1672,-1.0528,0.5625,0.0021,0.441,-31.25,28.25,-13.25,299.27,30.02,-99.22,31379,2015-10-08 14:06:08:289
9.1171,-2.4708,-2.5283,8.2794,-5.116,-1.2037,0.8378,2.6452,-1.3246,0.8799,-0.2152,0.4602,-29.0,30.25,-14.0,302.93,31.45,-98.27,31478,2015-10-08 14:06:08:388
10.8409,-3.4285,-1.0918,8.2004,-5.2138,-1.319,2.6405,1.7853,0.2272,1.3444,-1.0717,0.1832,-26.75,28.75,-16.0,300.48,32.02,-98.79,31579,2015-10-08 14:06:08:489
10.7069,-2.6432,0.4597,8.3599,-4.8901,-1.5394,2.4025,2.3272,1.9779,1.3231,-1.3294,-0.5987,-26.75,29.25,-15.5,302.52,31.13,-100.21,31678,2015-10-08 14:06:08:588
10.975,-4.8076,0.6512,9.0414,-3.5068,-1.4579,2.0158,-1.1088,2.1416,0.8778,-0.5689,-2.2371,-28.25,26.0,-15.75,307.08,20.95,-99.16,31778,2015-10-08 14:06:08:688
10.8218,-6.7995,0.0,9.5614,-1.8227,-1.1952,1.6818,-5.1684,1.2143,0.7968,-0.0937,-2.3564,-32.5,19.5,-15.5,303.86,17.16,-98.23,31878,2015-10-08 14:06:08:788
8.5425,-5.4971,1.0726,9.7869,-0.0648,-0.6182,-1.2444,-5.4323,1.6908,-0.2194,0.9587,-1.7769,-36.0,9.75,-15.5,301.32,5.28,-96.44,31979,2015-10-08 14:06:08:889
7.1251,-5.114,0.2682,9.7745,0.7907,0.0691,-2.7783,-5.8666,-0.006,0.7244,0.4985,-1.1207,-37.0,0.25,-16.75,280.14,-4.62,-89.6,32079,2015-10-08 14:06:08:989
6.2824,-3.9265,-1.0918,9.7612,0.9202,0.2076,-3.4788,-4.8467,-1.2993,0.8181,-0.1321,0.1278,-36.75,-7.5,-18.75,271.94,-5.49,-88.94,32178,2015-10-08 14:06:09:088
7.0868,-3.6583,-3.6009,9.8043,0.0485,-0.2101,-2.5039,-3.6171,-3.3896,-0.3324,-0.2684,2.0709,-36.25,-10.5,-18.5,242.37,-0.28,-91.23,32278,2015-10-08 14:06:09:188
15.3229,-7.604,-2.9113,9.2093,-3.1068,-1.3067,5.5482,-4.4314,-2.0134,-2.3116,-0.5625,2.8805,-36.75,-9.75,-18.5,235.22,8.14,-93.76,32378,2015-10-08 14:06:09:288
8.8681,-2.4325,-1.1684,8.2273,-5.0083,-1.8437,0.753,2.4289,0.6043,-2.3201,1.0205,2.1838,-37.0,-5.75,-17.0,229.62,24.6,-100.91,32479,2015-10-08 14:06:09:389
12.0859,-2.9688,0.0,7.096,-6.0834,-2.9682,3.9749,2.9064,2.8934,-0.5412,-1.8855,1.8386,-35.75,8.5,-15.25,248.72,36.35,-108.88,32579,2015-10-08 14:06:09:489
10.5536,-1.743,0.3831,7.0362,-5.9651,-3.3287,3.9364,4.4716,3.864,-0.5859,0.8671,-0.7031,-31.25,22.25,-12.25,276.97,39.14,-116.82,32679,2015-10-08 14:06:09:589
8.4659,-3.3519,0.2107,7.918,-5.1128,-2.7083,0.6965,2.0615,2.974,0.4197,0.3601,-1.2208,-27.5,29.25,-6.75,309.38,31.42,-108.88,32778,2015-10-08 14:06:09:688
9.3661,-4.1946,-0.2107,8.3364,-4.7441,-2.0416,0.819,0.4709,1.3674,2.693,-0.9502,-1.078,-27.0,29.75,-5.5,315.19,30.3,-107.12,32878,2015-10-08 14:06:09:788
8.6766,-4.5777,-0.5363,8.7415,-4.2163,-1.4068,-0.0649,-0.3614,0.8705,3.2512,-1.4573,-1.11,-29.25,29.0,-7.25,322.64,27.23,-100.82,32979,2015-10-08 14:06:09:889
9.6917,-4.4245,-0.4022,8.9522,-3.7689,-1.3504,0.6528,-0.5988,0.7842,2.7207,-1.3976,-1.1633,-32.25,25.25,-9.0,309.91,22.6,-98.58,33078,2015-10-08 14:06:09:988
12.1051,-5.9185,0.2873,9.2256,-2.9845,-1.4667,2.9674,-3.0154,1.7283,1.8365,-0.8778,-1.4338,-36.25,17.75,-9.75,293.66,17.72,-99.03,33178,2015-10-08 14:06:10:088
10.1897,-4.6543,0.498,9.4901,-2.1216,-1.2681,1.5353,-2.8272,1.6406,0.6647,0.3984,-1.8408,-39.25,9.75,-6.25,278.05,12.49,-97.61,33279,2015-10-08 14:06:10:189
8.6191,-5.0566,1.5897,9.7976,-0.385,-0.1709,-1.1785,-4.6716,1.7607,0.686,0.882,-1.7449,-42.0,-1.25,-4.25,235.02,4.42,-92.78,33379,2015-10-08 14:06:10:289
8.3318,-5.1906,0.7087,9.7906,0.5041,0.2447,-1.4588,-5.6947,0.464,1.0908,0.2067,-1.012,-40.5,-10.5,-6.5,211.23,0.15,-89.6,33479,2015-10-08 14:06:10:389
7.3358,-3.984,0.7278,9.7655,0.665,0.6034,-2.4296,-4.6489,0.1244,0.2748,0.6072,-0.0298,-38.5,-17.5,-6.75,197.92,-3.89,-86.46,33578,2015-10-08 14:06:10:488
7.853,-4.5394,-0.0383,9.7648,-0.0879,0.9007,-1.9118,-4.4515,-0.939,0.897,0.0959,0.6583,-36.75,-21.75,-8.0,191.96,-1.18,-84.62,33679,2015-10-08 14:06:10:589
8.6383,-4.2138,-1.5706,9.7141,-1.2212,0.5616,-1.1245,-3.155,-2.1322,0.4261,-0.3707,1.4743,-38.0,-21.5,-7.5,191.2,2.71,-85.24,33779,2015-10-08 14:06:10:689
10.4962,-4.5011,-2.0111,9.2593,-3.2304,-0.0166,1.4704,-1.1208,-1.8867,-1.2165,-0.0107,1.828,-40.0,-16.5,-4.5,188.19,19.23,-90.1,33879,2015-10-08 14:06:10:789
13.0245,-6.5888,0.2682,8.5856,-4.6827,-0.7289,5.0794,-2.2254,0.9205,-1.5617,-0.3537,1.9494,-41.75,-7.75,-3.75,195.68,28.52,-94.85,33979,2015-10-08 14:06:10:889
7.3167,-1.5323,0.8236,7.5623,-6.0542,-1.5257,0.7058,3.7118,1.3337,-2.2371,0.9566,1.698,-43.25,2.0,-4.0,206.79,36.52,-100.38,34079,2015-10-08 14:06:10:989
11.2623,-2.1452,0.2682,6.9402,-6.6419,-1.9722,4.9209,4.5913,1.941,0.6498,-1.6852,1.0631,-41.5,9.75,-4.25,212.4,39.99,-102.69,34178,2015-10-08 14:06:11:088
10.3813,-2.6049,0.4214,7.4852,-6.0571,-1.8585,2.0993,3.1541,2.4177,-0.6669,1.4552,-1.0844,-40.0,16.0,-0.75,223.33,38.14,-103.94,34279,2015-10-08 14:06:11:189
9.3853,-3.7158,-1.1875,8.4904,-4.8207,-0.9185,0.962,1.2114,-0.2168,1.9622,-0.4091,-1.4637,-40.5,16.25,-1.75,228.79,29.44,-96.17,34379,2015-10-08 14:06:11:289
10.2663,-3.1987,-0.9768,9.1911,-3.3666,-0.6002,1.0753,0.168,-0.3766,1.4211,-0.3622,-1.6341,-42.25,10.0,-3.0,229.3,20.08,-93.74,34479,2015-10-08 14:06:11:389
10.8026,-3.122,-0.249,9.6418,-1.7096,-0.5327,1.1609,-1.4124,0.2837,1.2975,-0.3238,-2.2434,-43.25,2.25,-2.25,220.04,16.86,-93.46,34578,2015-10-08 14:06:11:488
13.9247,-2.0494,0.6895,9.793,0.5107,-0.0765,4.1316,-2.5601,0.766,0.098,0.7031,-2.8272,-42.5,-7.5,-1.25,215.77,2.76,-92.2,34679,2015-10-08 14:06:11:589
14.1737,-1.9154,1.0726,9.2055,3.1488,1.2302,4.9681,-5.0642,-0.1576,0.5518,1.3614,-3.5409,-37.5,-20.0,-2.5,154.25,-12.19,-85.62,34779,2015-10-08 14:06:11:689
9.5002,1.5706,1.3408,7.8916,5.3517,2.2918,1.2795,-3.9211,-1.182,0.8181,1.4317,-2.9039,-27.75,-33.0,-5.75,172.16,-23.28,-79.92,34879,2015-10-08 14:06:11:789
7.1251,3.3327,0.4788,6.2168,7.1302,2.5851,0.2152,-3.6309,-1.5094,0.6796,1.2272,-2.661,-16.25,-42.5,-7.5,181.14,-46.64,-67.42,34978,2015-10-08 14:06:11:888
4.5203,5.9376,0.6704,4.0659,8.6434,2.2206,0.756,-2.7961,-1.7181,0.8437,0.5944,-2.1391,-4.75,-47.75,-5.25,183.21,-54.44,-63.81,35078,2015-10-08 14:06:11:988
3.3327,5.8035,-0.6512,2.8563,9.2463,1.5869,0.4764,-3.4427,-2.2381,0.7308,0.2088,-1.6192,6.5,-48.5,-2.0,191.58,-64.84,-60.81,35179,2015-10-08 14:06:12:089
0.6704,6.5505,-0.8811,2.07,9.51,1.202,-1.3996,-2.9595,-2.0831,0.4645,-0.4176,-0.7542,10.0,-48.75,0.0,192.53,-73.19,-60.06,35279,2015-10-08 14:06:12:189
0.1341,9.3661,0.2873,1.5422,9.6628,0.6499,-1.4081,-0.2967,-0.3626,0.2045,-1.2293,-0.2471,19.5,-47.5,3.5,188.38,-80.17,-67.15,35379,2015-10-08 14:06:12:289
-0.6704,8.7149,0.2682,1.4093,9.6951,0.4358,-2.0797,-0.9802,-0.1676,0.1427,-1.6554,-0.1385,20.5,-46.25,3.0,188.38,-80.17,-67.15,35479,2015-10-08 14:06:12:389
-3.1987,10.1514,1.2258,1.1075,9.7439,-0.0299,-4.3062,0.4076,1.2557,0.2344,-1.2464,0.2003,22.0,-44.75,0.0,178.74,-83.51,-91.55,35579,2015-10-08 14:06:12:489
-3.4477,10.5919,0.3256,0.6522,9.7831,-0.189,-4.0998,0.8088,0.5146,-0.3665,0.1726,-0.1896,22.0,-45.25,-1.75,170.36,-86.03,-106.16,35679,2015-10-08 14:06:12:589
-2.3559,10.8218,0.2682,-0.2763,9.8022,0.1056,-1.8498,1.0962,0.1243,-0.392,1.2464,-0.8607,23.25,-44.25,-2.5,343.09,-88.27,69.09,35779,2015-10-08 14:06:12:689
1.8387,9.1554,1.0151,-1.1228,9.7247,0.583,2.2911,-0.9332,0.7577,-0.13,0.9928,-0.3494,25.75,-43.5,-1.75,330.78,-82.59,62.56,35879,2015-10-08 14:06:12:789
2.1452,8.2744,2.0877,-1.1415,9.6803,1.0771,4.3224,-0.8815,1.1409,-0.5049,0.8991,-0.2344,29.75,-41.5,-0.5,306.04,-80.79,46.66,35979,2015-10-08 14:06:12:889
0.4597,9.979,0.3639,-1.248,9.6907,0.8381,1.7077,0.2883,-0.4742,0.8373,1.3998,-0.1023,31.25,-40.0,0.25,318.15,-81.18,56.12,36079,2015-10-08 14:06:12:989
-2.0303,9.4619,-2.2793,-1.9197,9.616,-0.1293,-0.1297,-0.2499,-2.533,0.6008,0.9758,-0.8266,32.0,-40.0,3.5,355.56,-78.69,93.85,36178,2015-10-08 14:06:13:088
0.4022,9.845,-4.1946,-2.1323,9.5496,-0.6543,2.7431,0.1037,-3.037,-0.3814,0.5326,-0.3196,33.0,-38.25,6.25,4.53,-76.73,103.54,36279,2015-10-08 14:06:13:189
0.4214,8.9639,-2.6624,-2.2826,9.5153,-0.6474,2.2965,-0.3052,-1.7885,-0.2834,-0.2216,0.0831,33.5,-36.0,11.5,355.06,-76.0,105.84,36378,2015-10-08 14:06:13:288
-1.0534,8.2552,-1.9728,-2.1949,9.5435,-0.5233,0.4019,-1.5771,-1.2004,-0.0085,-0.4304,-0.3345,34.0,-37.25,10.5,353.86,-76.7,103.41,36479,2015-10-08 14:06:13:389
-1.0534,8.7149,0.6129,-2.4271,9.4959,-0.327,1.3737,-0.781,0.9399,-0.6669,-0.4645,0.0447,35.75,-35.75,9.5,355.18,-75.33,102.49,36579,2015-10-08 14:06:13:489
-1.3982,9.979,0.3065,-2.6699,9.4302,-0.3379,1.2717,0.5489,0.6443,0.4623,-0.8501,-0.3302,35.5,-34.75,7.5,352.43,-74.07,97.21,36679,2015-10-08 14:06:13:589
-2.4708,8.983,0.5746,-2.6752,9.4212,-0.505,-0.1212,-0.5339,0.888,1.11,-1.4147,0.2301,37.5,-34.25,6.25,352.43,-74.07,97.21,36779,2015-10-08 14:06:13:689
-4.5777,8.0637,-0.1915,-2.4623,9.442,-0.9774,-2.1154,-1.3784,0.7859,0.8266,-1.5191,0.5731,38.0,-32.75,3.25,23.24,-74.33,111.65,36879,2015-10-08 14:06:13:789
-4.0797,7.853,-1.1492,-2.2444,9.4385,-1.4309,-1.8353,-1.5855,0.2816,0.5198,-1.1185,0.5923,36.75,-34.25,0.5,41.78,-74.25,122.52,36979,2015-10-08 14:06:13:889
-1.4748,8.0637,-1.4748,-2.0315,9.4696,-1.5396,0.5566,-1.4059,0.0648,-0.13,-0.4005,0.196,36.25,-35.25,-1.25,50.96,-74.53,126.45,37079,2015-10-08 14:06:13:989
-1.8004,9.0022,-0.0766,-1.8113,9.5618,-1.2086,0.0109,-0.5596,1.132,-0.3132,-0.8117,0.637,34.75,-38.0,-2.0,50.82,-76.02,124.78,37179,2015-10-08 14:06:14:089
-3.1795,11.722,-0.1724,-1.3079,9.6673,-1.0012,-1.8716,2.0547,0.8288,-0.049,-0.6775,0.7073,34.0,-39.5,-4.5,49.77,-77.17,123.71,37279,2015-10-08 14:06:14:189
-4.0989,9.6151,0.7278,-1.1441,9.7089,-0.7744,-2.9548,-0.0937,1.5022,-0.0447,-0.4858,0.1449,30.5,-40.75,-7.0,59.02,-81.82,126.91,37379,2015-10-08 14:06:14:289
-3.9073,8.6383,1.0343,-1.4599,9.661,-0.8394,-2.4475,-1.0227,1.8737,0.3558,0.3345,0.0469,27.75,-42.75,-8.5,55.83,-81.22,118.74,37479,2015-10-08 14:06:14:389
-6.11,10.1131,1.245,-1.7885,9.5992,-0.91,-4.3215,0.514,2.155,-0.0554,0.8011,-0.1747,26.75,-43.25,-8.25,62.41,-79.63,121.23,37578,2015-10-08 14:06:14:488
-6.1483,11.1857,3.4285,-2.7081,9.4141,-0.4608,-2.837,1.4564,3.9745,-0.1193,1.8003,-1.1249,26.75,-45.0,-7.75,62.32,-78.19,116.97,37679,2015-10-08 14:06:14:589
2.8156,11.6837,-1.6855,-3.403,9.1701,-0.7065,8.594,2.3876,-1.5265,0.0511,1.2826,-0.6477,28.5,-43.75,-5.5,41.11,-69.74,99.06,37778,2015-10-08 14:06:14:688
2.0303,7.4508,-0.3256,-2.9194,9.362,0.0369,4.9135,-1.7358,-0.9589,-0.9183,1.2229,-0.0724,33.0,-38.75,-0.75,9.48,-72.4,93.93,37878,2015-10-08 14:06:14:788
-1.1684,8.4851,-0.1149,-2.5703,9.4471,0.5633,1.5258,-1.2213,-0.3338,-0.6477,1.2442,0.2045,35.0,-37.75,0.75,344.67,-73.76,81.51,37979,2015-10-08 14:06:14:889
-2.8156,9.0214,-0.8045,-2.4127,9.4969,0.398,-0.3185,-0.5163,-1.3458,-0.4559,1.2485,0.196,35.0,-38.5,1.5,341.64,-75.52,80.37,38079,2015-10-08 14:06:14:989
-3.2561,10.094,-1.4748,-2.6156,9.4514,0.0104,-0.6405,0.6426,-1.4852,0.1406,0.4155,0.0362,32.75,-39.75,4.0,341.35,-75.18,84.51,38179,2015-10-08 14:06:15:089
-1.0151,9.2703,-1.2258,-2.8426,9.3748,-0.45,1.8275,-0.1045,-0.7759,0.4666,-0.0426,-0.7734,32.75,-40.0,5.0,348.93,-74.53,89.77,38279,2015-10-08 14:06:15:189
-1.0534,9.7109,-1.6089,-3.0047,9.3093,-0.6923,2.61,0.8613,-1.1599,0.1001,-0.2855,-0.2067,32.5,-39.5,8.0,356.05,-71.59,101.31,38379,2015-10-08 14:06:15:289
-3.3327,7.5082,-1.8579,-3.3741,9.1626,-0.9126,-0.1153,-1.8524,-0.9808,0.4751,-0.6349,-0.4836,34.25,-37.5,9.75,356.2,-71.67,102.98,38479,2015-10-08 14:06:15:389
-0.9194,8.7149,-1.0534,-3.5546,9.0845,-1.0036,2.7843,-0.0515,0.4506,-0.2557,-1.0908,-0.1129,34.75,-36.25,9.75,358.56,-69.12,105.14,38579,2015-10-08 14:06:15:489
-1.1684,9.5768,0.4022,-3.4921,9.1327,-0.7539,2.0316,0.1368,1.0345,0.5859,-0.9992,0.1108,36.5,-35.0,9.75,355.4,-68.7,102.36,38679,2015-10-08 14:06:15:589
-3.735,8.1977,-0.1532,-3.3291,9.177,-0.9324,-0.3449,-1.0509,0.8596,0.897,-1.2655,0.8053,37.75,-32.25,7.0,358.17,-68.64,102.18,38778,2015-10-08 14:06:15:688
-3.869,8.6957,-2.6432,-2.6844,9.3013,-1.5653,-1.1847,-0.6056,-1.0779,0.7244,-1.3401,0.9523,39.75,-32.75,5.0,14.05,-70.19,108.03,38879,2015-10-08 14:06:15:789
-2.241,9.5768,-2.0686,-2.2973,9.4049,-1.562,0.0564,0.1719,-0.5066,-0.0724,-1.583,0.8224,39.0,-32.75,3.5,34.22,-71.53,120.25,38979,2015-10-08 14:06:15:889
-2.7773,7.7189,-0.7661,-2.0003,9.5575,-0.9073,-0.8663,-1.925,0.1392,-0.4836,-1.1824,0.3089,36.5,-35.5,0.75,36.09,-75.36,121.99,39079,2015-10-08 14:06:15:989
-0.5363,9.7875,1.1492,-1.7864,9.6402,-0.2159,0.0168,-1.0201,0.5992,-0.441,-0.0469,0.3281,34.75,-37.5,-2.5,25.34,-78.14,106.24,39179,2015-10-08 14:06:16:089
0.3639,11.7029,0.2873,-1.3986,9.6966,-0.4365,1.6284,1.9105,0.7622,0.6008,-0.6967,0.3728,32.5,-39.75,-8.75,30.65,-80.44,99.34,39279,2015-10-08 14:06:16:189
-1.743,9.5577,0.8236,-0.6416,9.7556,-0.7657,-1.7909,-0.4278,1.551,0.6669,-1.3508,0.7329,32.0,-41.75,-11.25,43.03,-81.41,107.33,39378,2015-10-08 14:06:16:288
-4.2329,8.5234,1.7238,-0.5611,9.7479,-0.913,-3.6719,-1.2246,2.6368,0.2684,-0.9353,0.4495,29.0,-41.5,-12.25,91.24,-83.65,150.41,39478,2015-10-08 14:06:16:388
-4.0797,9.7109,2.6815,-0.8224,9.7555,-0.5699,-3.0735,0.1673,3.0676,-0.3686,-0.0575,-0.0362,24.25,-43.5,-12.25,92.57,-83.57,145.62,39579,2015-10-08 14:06:16:489
-4.3096,9.3278,3.3136,-1.2973,9.7201,-0.0856,-3.0123,-0.3923,3.3992,-0.4176,1.4317,-0.2471,19.75,-46.25,-13.0,77.28,-84.14,124.72,39678,2015-10-08 14:06:16:588
-3.984,11.1474,4.5777,-1.8746,9.6199,0.3367,-2.1093,1.5275,4.241,-0.4517,2.6227,-0.8053,19.0,-48.0,-14.0,50.85,-82.38,93.78,39778,2015-10-08 14:06:16:688
-2.0303,9.9982,1.8579,-2.9335,9.3512,0.3465,0.9032,0.647,1.5114,-0.6179,2.3095,-0.571,20.75,-46.0,-12.75,43.18,-74.23,79.68,39878,2015-10-08 14:06:16:788
5.4779,11.0325,0.6129,-2.8283,9.3339,1.0245,8.254,1.9935,-0.6846,-1.8173,1.8131,-0.179,24.75,-44.5,-9.5,28.4,-71.35,82.57,39978,2015-10-08 14:06:16:888
3.237,9.3278,0.5555,-2.5307,9.3332,1.6299,6.0139,0.0162,-0.7758,-0.5113,1.5979,-0.0256,30.25,-41.0,-5.25,347.87,-72.14,70.09,40079,2015-10-08 14:06:16:989
-0.5363,9.3661,-0.5555,-2.4651,9.3829,1.4338,1.9288,-0.0167,-1.9892,-0.115,1.5361,-0.0533,32.5,-40.0,-3.5,318.14,-72.12,57.22,40179,2015-10-08 14:06:17:089
-3.4285,8.2169,-1.1301,-2.711,9.3892,0.815,-0.7175,-1.1723,-1.9451,0.5625,1.2208,-0.3622,34.0,-38.75,0.0,324.85,-73.41,67.01,40278,2015-10-08 14:06:17:188
-2.7581,8.102,-0.5363,-3.0007,9.3355,0.1189,1.1236,-0.6206,-1.1531,0.2322,0.3835,-0.3814,33.0,-39.5,4.5,337.75,-72.53,84.98,40378,2015-10-08 14:06:17:288
-1.4365,9.6534,-1.494,-3.0684,9.3128,-0.163,2.6983,0.0396,-1.1192,0.1598,0.3558,-0.2898,33.5,-37.25,8.25,338.95,-71.2,90.31,40478,2015-10-08 14:06:17:388
-1.8962,9.8258,-1.8579,-2.9395,9.3484,-0.3707,-0.5849,-1.0438,-1.0148,-0.2898,0.1875,0.1854,34.5,-37.0,10.5,342.74,-71.37,96.55,40579,2015-10-08 14:06:17:489
-3.9648,7.5657,-1.0534,-3.3123,9.2213,-0.4086,-1.1497,-1.7505,-0.7651,-0.147,-0.13,0.1023,33.75,-37.75,11.75,339.87,-70.36,97.45,40679,2015-10-08 14:06:17:589
-0.3256,8.6766,0.1341,-3.0894,9.3053,-0.1923,2.8595,-0.6862,0.3839,0.0554,-0.5198,0.0724,34.0,-37.0,11.75,335.53,-71.02,94.17,40779,2015-10-08 14:06:17:689
-4.4436,5.9185,-0.1915,-2.8769,9.375,0.0613,-1.1071,-3.2841,-0.4827,-0.5603,-0.3004,0.4666,33.75,-36.25,11.0,335.71,-71.6,93.56,40878,2015-10-08 14:06:17:788
-3.8307,6.2824,0.9385,-2.2664,9.5165,0.686,-1.5643,-3.2341,0.2525,-1.0333,0.1023,1.1313,36.25,-35.0,9.0,335.78,-72.94,88.78,40978,2015-10-08 14:06:17:888
2.9305,13.0628,3.7733,-1.1642,9.6299,1.4423,4.0947,3.4329,2.331,-0.2088,-0.081,0.767,32.0,-38.75,7.0,320.78,-76.03,73.16,41078,2015-10-08 14:06:17:988
4.5969,13.8864,1.3024,-0.2854,9.7125,1.325,4.9972,3.7142,-0.5972,0.2109,-0.5752,0.0895,28.5,-41.25,4.25,285.85,-79.11,38.91,41179,2015-10-08 14:06:18:089
1.2258,7.7955,2.1261,-0.0437,9.7284,1.2353,1.327,-1.7414,0.7758,0.3558,-0.9545,-0.0746,27.75,-41.5,3.75,255.36,-82.53,3.96,41279,2015-10-08 14:06:18:189
1.1684,6.5314,2.3367,0.0357,9.751,1.043,1.1327,-3.2196,1.4661,0.4133,-0.995,-0.0639,27.5,-43.25,2.25,254.63,-82.76,2.03,41379,2015-10-08 14:06:18:289
1.9154,6.0142,0.9577,0.2274,9.7866,0.5837,1.6389,-3.767,0.3089,0.4218,-0.6392,-0.473,27.5,-42.75,1.5,247.8,-85.09,-11.18,41479,2015-10-08 14:06:18:389
-2.2218,8.1977,-0.2298,0.7258,9.7508,0.7516,-2.7797,-1.5721,-0.8692,-0.6562,-0.7542,1.2741,27.25,-42.5,0.5,243.53,-86.34,-21.29,41579,2015-10-08 14:06:18:489
-1.0534,17.7554,-0.5555,1.7543,9.6237,0.6912,-4.6465,7.5763,1.6838,-0.4815,-0.5731,1.3934,27.0,-43.5,-0.75,203.13,-80.93,-63.59,41679,2015-10-08 14:06:18:589
-3.6009,11.8944,3.2753,0.6603,9.768,0.5668,-4.2612,2.1264,2.7085,0.1193,-0.4922,-1.2911,19.75,-46.5,-3.75,205.41,-79.99,-66.53,41778,2015-10-08 14:06:18:688
-6.8761,11.224,5.9951,-1.2073,9.6837,0.9691,-5.3403,2.2412,5.7439,-0.1662,1.6384,-1.2741,17.0,-49.0,-4.0,221.36,-84.91,-49.36,41878,2015-10-08 14:06:18:788
-4.9033,14.5759,6.5888,-2.9369,9.2718,1.2564,-1.1082,5.3429,5.7467,-0.5816,2.2562,-1.7449,21.0,-46.25,-4.0,323.59,-74.66,63.8,41978,2015-10-08 14:06:18:888
9.2895,13.1968,0.4405,-3.8142,8.9509,1.226,12.5009,5.6119,-0.0666,-1.4552,2.8528,-0.2919,26.25,-41.5,-0.75,303.48,-67.78,67.18,42078,2015-10-08 14:06:18:988
8.6191,-5.4013,-7.6423,-3.377,9.1992,0.3749,11.9961,-14.6005,-8.0171,1.3891,0.7862,-0.8991,33.5,-37.0,5.0,312.01,-65.89,72.18,42178,2015-10-08 14:06:19:088
-1.7621,3.237,-3.984,-3.1576,9.2791,-0.3143,1.3954,-6.0421,-3.6697,-0.1981,-0.9545,-0.3622,35.25,-35.0,10.5,329.53,-69.73,83.67,42278,2015-10-08 14:06:19:188
-12.4307,12.8138,-0.3256,-4.2545,8.808,-0.699,-8.1762,4.0057,0.3734,-0.0021,-1.6235,1.0717,35.5,-32.0,14.0,337.35,-69.66,95.17,42379,2015-10-08 14:06:19:289
-4.3862,7.9679,-0.0575,-3.224,9.2605,0.1401,-1.1621,-1.2926,-0.1976,0.718,-0.897,0.2621,37.5,-28.75,13.0,331.44,-68.89,89.22,42479,2015-10-08 14:06:19:389
-0.6895,9.4619,2.6049,-3.0106,9.3248,0.3929,2.3211,0.1371,2.212,-0.3111,0.0959,0.3047,37.25,-31.5,9.5,332.91,-71.33,86.11,42579,2015-10-08 14:06:19:489
-1.1109,10.6877,-1.494,-3.1123,9.297,0.2245,2.0014,1.3908,-1.7185,-0.5667,0.3601,-0.13,35.25,-34.0,7.25,331.45,-71.96,82.57,42678,2015-10-08 14:06:19:588
-3.3902,8.7724,-1.1875,-3.3113,9.2228,0.3824,0.0595,-0.558,-1.6962,-0.0533,0.5902,-0.1129,34.0,-33.25,8.75,325.83,-70.63,82.44,42778,2015-10-08 14:06:19:688
-3.4668,8.1786,-1.7238,-3.7086,9.078,0.0759,0.4608,-0.9841,-1.8988,-0.0064,0.0916,-0.2557,34.25,-33.25,9.0,326.28,-70.13,83.41,42878,2015-10-08 14:06:19:788
-1.2258,7.5274,0.0383,-3.4572,9.1694,0.3744,2.2314,-1.642,-0.3361,-0.4645,-0.2663,0.4346,34.5,-33.0,10.25,330.45,-67.5,88.74,42978,2015-10-08 14:06:19:888
-3.3519,3.8882,-0.7087,-3.0456,9.2978,0.6674,-0.3637,-4.8733,-1.3377,-0.3451,-0.4581,0.637,34.0,-32.75,9.75,319.61,-70.5,79.56,43078,2015-10-08 14:06:19:988
-4.8459,7.1635,3.6009,-2.5456,9.3879,1.2483,-2.3002,-2.2244,2.3526,0.5113,-1.4573,1.4615,33.75,-34.75,8.0,316.43,-72.56,74.38,43178,2015-10-08 14:06:20:088
7.8913,18.1385,6.0142,0.4838,9.5519,2.1675,5.3581,7.3033,3.7893,0.4687,-0.228,0.1662,33.0,-35.5,5.5,256.06,-79.77,6.67,43279,2015-10-08 14:06:20:189
-1.3791,6.6463,2.8347,0.6942,9.5568,2.0871,-2.0476,-2.8142,0.102,-0.1641,-0.0256,-0.4218,27.5,-40.25,2.75,232.4,-78.09,-18.47,43378,2015-10-08 14:06:20:288
0.6512,9.4236,1.3408,0.3708,9.6039,1.9488,0.2585,-0.1883,-0.5638,-0.1491,-0.3899,0.0618,24.25,-42.5,0.0,233.15,-76.17,-15.42,43478,2015-10-08 14:06:20:388
0.0383,9.6726,-0.0192,0.6125,9.6116,1.8472,-0.7658,0.7804,-2.3812,0.1832,-0.816,0.0618,24.75,-42.75,-0.5,237.0,-78.15,-16.06,43578,2015-10-08 14:06:20:488
3.5626,11.7795,4.7693,0.9763,9.5311,2.0918,2.5863,2.2484,2.6775,-0.7542,-0.3643,0.0469,24.5,-41.5,-0.75,232.42,-78.29,-24.97,43678,2015-10-08 14:06:20:588
-1.4748,9.3087,2.6049,0.6192,9.6309,1.7415,-2.094,-0.3222,0.8634,0.0277,-0.8203,-0.6626,25.0,-41.5,-3.75,232.29,-76.39,-25.02,43778,2015-10-08 14:06:20:688
-1.7621,8.6766,2.0111,-0.0539,9.766,0.8905,-1.5872,-1.4026,1.0011,0.8906,-1.2336,-0.931,25.75,-41.75,-5.25,243.45,-79.14,-19.57,43879,2015-10-08 14:06:20:789
-5.114,7.0868,2.0303,-1.3516,9.6936,0.6144,-4.4267,-3.1475,1.0046,0.1278,-1.0653,-0.5795,28.75,-40.0,-5.0,321.36,-84.2,46.64,43979,2015-10-08 14:06:20:889
-2.0494,7.8721,1.3791,-1.4134,9.6655,0.8664,-0.3572,-1.5096,0.6601,0.2152,-0.0021,-0.3409,31.0,-37.25,-5.75,341.23,-81.29,65.55,44079,2015-10-08 14:06:20:989
-3.7733,6.7229,-1.1684,-1.7766,9.6373,0.3699,-1.9967,-2.9144,-1.5383,0.7414,-0.4964,-0.5731,32.5,-35.25,-7.0,336.22,-80.27,58.49,44179,2015-10-08 14:06:21:089
-3.9265,8.4084,-0.1724,-1.9433,9.6119,0.0715,-1.9832,-1.2035,-0.2439,-0.4091,-1.502,0.5241,33.25,-34.75,-7.25,0.74,-79.34,78.24,44279,2015-10-08 14:06:21:189
0.0192,11.7795,2.9305,-1.1469,9.6831,1.0454,-0.5758,0.9963,1.9505,-0.4815,-0.9225,0.3345,33.25,-34.5,-9.0,350.87,-80.61,67.21,44379,2015-10-08 14:06:21:289
-3.0263,8.5617,3.5243,-1.0376,9.6389,1.478,-2.3142,-1.422,1.4717,0.3537,-0.9055,0.0277,31.0,-34.5,-14.0,326.86,-80.01,38.42,44478,2015-10-08 14:06:21:388
-1.4557,9.5577,2.8347,-1.0389,9.6675,1.277,-0.4168,-0.1098,1.5578,0.0085,-0.4069,-0.1427,28.25,-35.25,-18.25,337.72,-80.62,38.99,44578,2015-10-08 14:06:21:488
-1.8196,8.3701,2.1452,-1.0595,9.61,1.6417,-0.5111,-1.2974,0.561,-0.6903,-0.2088,0.4666,24.5,-36.0,-20.0,341.77,-80.34,39.13,44678,2015-10-08 14:06:21:588
-0.5938,8.0828,1.8387,-0.5798,9.5702,2.0603,-0.2247,-1.5449,-0.1449,0.0128,0.0469,0.3174,23.75,-36.0,-21.75,323.6,-77.41,20.04,44779,2015-10-08 14:06:21:689
0.0192,9.8067,2.2793,-0.3374,9.6657,1.6221,0.0557,-0.122,0.5442,0.7947,-0.3345,0.2258,22.25,-34.75,-23.25,320.58,-78.95,12.58,44879,2015-10-08 14:06:21:789
-0.3448,8.1403,1.8196,-0.3257,9.7556,0.9444,-0.052,-1.6116,0.8268,0.6754,-0.7265,-0.3835,19.5,-37.5,-22.0,320.68,-82.58,9.05,44979,2015-10-08 14:06:21:889
-2.3367,9.3853,0.5938,-0.4243,9.7537,0.9251,-1.1272,-0.0811,-0.0057,-0.5646,-0.6179,0.5646,19.0,-39.0,-21.25,353.82,-84.46,36.81,45078,2015-10-08 14:06:21:988
1.4557,12.3732,2.2601,0.3624,9.6428,1.748,0.5861,2.4742,0.7834,-0.4304,0.9523,0.5582,19.0,-38.25,-21.25,338.01,-84.04,24.64,45178,2015-10-08 14:06:22:088
-1.9728,9.3853,1.2833,0.1524,9.7419,1.115,-1.8954,-0.6247,0.0725,0.9779,2.269,0.0021,16.0,-39.0,-23.25,296.19,-79.02,-11.99,45278,2015-10-08 14:06:22:188
-2.5474,7.7955,3.6583,-0.386,9.7816,0.5852,-2.0465,-1.7562,3.1114,0.7116,2.9124,-0.7649,15.25,-40.75,-21.0,329.05,-85.62,8.23,45378,2015-10-08 14:06:22:288
-3.1412,9.73,2.5283,-1.5865,9.6769,0.107,-2.589,0.0723,3.0534,0.2621,1.9558,-1.1228,18.5,-42.0,-14.5,27.5,-83.61,75.72,45478,2015-10-08 14:06:22:388
2.0686,8.5042,-3.5434,-2.3666,9.5131,-0.2659,3.4938,-0.7335,-1.4769,0.2642,-0.1193,1.029,23.5,-40.5,-6.75,15.6,-75.57,82.7,45578,2015-10-08 14:06:22:488
8.102,9.6343,-1.1301,-0.2933,9.7928,0.4299,9.7826,-0.1914,0.7309,0.3941,-0.4985,0.9481,29.25,-39.0,-1.75,330.05,-83.92,60.32,45678,2015-10-08 14:06:22:588
8.1786,10.5728,-1.0726,1.5467,9.6799,0.2786,6.6319,0.8929,-1.3512,1.3103,0.1534,-0.0234,28.0,-41.25,-3.5,304.77,-86.96,34.3,45779,2015-10-08 14:06:22:689
0.9577,10.4962,-1.8962,1.4839,9.682,-0.4769,-0.5262,0.8142,-1.4193,-0.1385,0.7201,-0.7713,21.75,-43.0,-2.5,172.08,-79.88,-105.7,45879,2015-10-08 14:06:22:789
-3.237,8.4084,-0.0192,0.1883,9.7811,-0.6822,-3.4253,-1.3726,0.6631,0.2024,0.8735,-0.3814,21.25,-43.5,0.25,164.42,-82.68,-112.3,45979,2015-10-08 14:06:22:889
-1.9154,8.7724,-1.4748,-0.3448,9.7492,-1.0021,-1.5706,-0.9769,-0.4727,-0.0831,0.5752,-0.2322,24.0,-42.75,1.75,110.18,-85.86,-164.57,46078,2015-10-08 14:06:22:988
-0.8236,9.7683,-1.8771,-0.3734,9.7695,-0.7673,-0.546,-0.0969,-1.2055,-0.066,0.5944,-0.1917,26.5,-39.25,4.75,71.61,-83.8,161.01,46179,2015-10-08 14:06:23:089
-1.992,7.2401,-1.2833,-0.5895,9.7679,-0.6413,-1.4025,-2.5278,-0.642,-0.196,0.5774,-0.2834,27.25,-39.0,5.75,48.29,-84.86,145.27,46279,2015-10-08 14:06:23:189
-2.1835,6.9719,-2.0877,-0.7447,9.7527,-0.7077,-1.4388,-2.7808,-1.38,-0.2919,0.115,0.0533,28.25,-39.0,6.5,35.75,-84.57,133.51,46379,2015-10-08 14:06:23:289
-1.4557,5.8802,0.1532,-0.3292,9.801,-0.056,-0.6668,-3.6335,0.2475,-0.6477,-0.1065,0.6775,27.25,-39.25,7.5,16.06,-85.98,120.99,46478,2015-10-08 14:06:23:388
2.0303,11.1282,2.0686,0.382,9.7814,0.5911,1.6483,1.3469,1.4775,-0.5454,-0.424,0.3792,25.5,-40.75,5.5,309.27,-89.16,55.3,46578,2015-10-08 14:06:23:488
7.0868,14.9781,1.8004,1.6672,9.6016,1.0958,5.4196,5.3766,0.7046,-0.4069,-0.5177,0.3665,23.5,-43.25,4.0,220.82,-85.88,-32.87,46678,2015-10-08 14:06:23:588
1.7238,8.3127,0.8619,2.0539,9.4928,1.356,-0.4642,-1.3908,-0.5324,-0.2344,-0.8522,0.0788,20.5,-45.0,0.75,200.52,-76.05,-56.85,46778,2015-10-08 14:06:23:688
2.6624,7.0677,3.0454,2.1984,9.4658,1.3174,0.349,-2.3598,1.6897,0.1768,-1.2911,-0.0085,17.75,-45.0,-2.25,203.86,-75.2,-58.23,46879,2015-10-08 14:06:23:789
4.2713,7.7189,3.3327,2.3975,9.447,1.0846,1.7588,-1.6706,2.0949,-0.0724,-1.1398,-0.0788,17.75,-44.0,-5.0,206.4,-74.83,-63.91,46979,2015-10-08 14:06:23:889
2.5091,7.0102,2.7198,2.511,9.4187,1.0741,-0.0019,-2.4085,1.6457,-0.1662,-0.9758,-0.245,17.5,-41.75,-6.25,206.59,-73.82,-66.6,47078,2015-10-08 14:06:23:988
0.1532,8.8298,2.5474,2.6582,9.3493,1.3018,-2.505,-0.5195,1.2456,-0.4197,-0.767,0.7478,17.5,-41.75,-8.25,209.58,-73.72,-65.42,47178,2015-10-08 14:06:24:088
-3.62,12.967,1.0151,3.2078,9.1953,1.1515,-6.8279,3.7717,-0.1364,-0.049,-0.5475,1.4445,16.5,-42.0,-11.0,211.65,-69.66,-70.25,47278,2015-10-08 14:06:24:188
-1.2833,14.6334,4.9416,3.0729,9.2296,1.2857,-4.4137,6.1891,3.4507,0.3665,0.1726,-0.4304,11.25,-43.0,-12.0,215.28,-69.37,-70.66,47379,2015-10-08 14:06:24:289
0.0958,11.224,4.9608,1.577,9.5829,1.361,-1.2131,1.2772,3.8871,0.5987,1.4253,-0.946,5.5,-42.0,-12.5,223.51,-72.0,-64.89,47479,2015-10-08 14:06:24:389
2.6624,8.734,5.8227,0.6499,9.6999,1.2883,2.0124,-0.9659,4.5344,0.8245,2.3734,-0.6349,7.5,-42.25,-10.75,244.04,-77.74,-49.2,47578,2015-10-08 14:06:24:488
3.6392,7.5465,4.8842,-0.1959,9.7974,0.3782,3.8351,-2.2509,4.506,1.4594,2.9103,-1.0567,12.25,-41.0,-6.5,259.56,-81.54,-26.77,47679,2015-10-08 14:06:24:589
5.8419,6.7421,3.5817,-0.6351,9.7861,-0.0129,6.4769,-3.044,3.5946,0.6924,3.1638,-0.8416,15.75,-41.25,0.75,340.9,-86.76,77.22,47779,2015-10-08 14:06:24:689
6.8187,7.3933,0.1724,-0.4662,9.7955,-0.018,7.2849,-2.4023,0.1904,-0.6626,3.0488,-0.1172,16.75,-39.0,10.25,340.3,-86.28,103.28,47879,2015-10-08 14:06:24:789
4.7884,9.0405,-4.7309,0.2582,9.7995,-0.2728,4.1208,-1.1201,-4.6398,-0.2003,1.9984,0.0597,14.0,-39.5,16.25,299.06,-88.46,72.73,47978,2015-10-08 14:06:24:888
-0.0766,9.7683,-4.2521,0.7289,9.7391,-0.8878,-0.931,-0.3273,-3.5449,0.3473,0.8117,0.7989,9.0,-39.25,20.0,71.33,-85.19,-141.1,48079,2015-10-08 14:06:24:989
1.0918,9.6151,-1.0726,1.327,9.6403,-1.2142,-0.2352,-0.0252,0.1416,0.865,0.8671,-0.0341,4.5,-36.25,22.5,77.27,-80.65,-129.37,48179,2015-10-08 14:06:25:089
2.0686,7.4891,-1.3216,1.1712,9.5689,-1.7986,0.9425,-2.2343,0.5447,0.0788,1.0674,-0.5646,0.0,-36.0,24.75,47.36,-77.36,-146.93,48279,2015-10-08 14:06:25:189
1.9728,8.0062,-3.4477,1.1626,9.5921,-1.6762,1.4078,-1.5479,-1.4583,0.081,1.1888,-0.3814,-2.25,-33.25,26.75,39.85,-77.82,-146.13,48378,2015-10-08 14:06:25:288
4.118,12.4882,-4.5969,1.364,9.5207,-1.9146,3.3379,3.1726,-3.2871,-0.4261,0.0831,-0.4027,-5.5,-33.25,28.0,33.37,-76.08,-146.2,48478,2015-10-08 14:06:25:388
-0.8236,8.7532,-2.5474,0.6971,9.6381,-1.6709,-1.5207,-0.8849,-0.8765,-0.8352,-0.5838,-0.5774,-7.0,-33.5,27.5,16.7,-77.74,-153.63,48579,2015-10-08 14:06:25:489
-0.3831,7.7955,-0.5171,-0.146,9.7659,-0.8814,-0.2371,-1.9704,0.3642,-0.6477,-0.0192,-0.865,-5.5,-34.5,26.25,355.84,-83.55,-172.65,48679,2015-10-08 14:06:25:589
-2.2601,7.8147,-0.3831,-0.8422,9.7618,-0.4091,-1.4179,-1.9472,0.026,-0.5774,0.1917,-0.098,-2.0,-37.0,24.0,318.0,-85.11,149.5,48778,2015-10-08 14:06:25:688
-2.1452,8.8107,1.4174,-1.1152,9.743,0.0256,-1.03,-0.9323,1.3917,-0.6456,0.0639,-0.2876,1.0,-38.5,21.25,259.73,-83.47,88.68,48878,2015-10-08 14:06:25:788
-2.2601,7.5465,3.3327,-1.327,9.6936,0.6653,-0.9331,-2.1471,2.6674,-0.6519,0.6221,0.2173,3.25,-40.0,19.25,237.18,-81.29,63.37,48978,2015-10-08 14:06:25:888
-0.9768,8.6957,3.0837,-1.0744,9.6666,1.2542,0.0976,-0.9709,1.8296,-0.3025,1.436,0.5859,3.25,-40.75,16.5,228.45,-80.57,54.71,49078,2015-10-08 14:06:25:988
0.1532,8.9639,3.1412,-0.7177,9.6703,1.4632,0.8709,-0.7064,1.6779,-0.3707,2.3223,0.686,0.0,-39.75,15.0,202.97,-80.48,32.61,49178,2015-10-08 14:06:26:088
3.0646,7.106,2.4517,-0.3307,9.7057,1.3641,3.1846,-2.6109,1.1221,0.6115,3.3961,0.588,-5.25,-41.25,13.25,177.19,-80.74,16.94,49279,2015-10-08 14:06:26:189
5.7078,11.0516,2.7773,0.2957,9.7645,0.8593,4.9477,1.9464,0.5338,1.1995,2.7953,0.3579,-10.75,-41.25,10.75,127.15,-84.68,-18.99,49379,2015-10-08 14:06:26:289
1.7621,12.2009,-2.3942,0.8305,9.7636,0.3906,-0.5049,1.5562,-1.3291,-0.0383,0.7776,1.3444,-17.5,-39.0,8.25,89.09,-85.51,-42.48,49478,2015-10-08 14:06:26:388
-1.743,7.106,-2.4325,1.9695,9.5816,0.6953,-1.9937,-0.9919,-3.0462,-1.0269,0.7372,0.6392,-22.25,-37.25,4.25,38.06,-78.54,-74.59,49578,2015-10-08 14:06:26:488
-3.122,8.0445,-0.6895,2.1755,9.5238,0.8574,-5.1593,-1.7793,-1.8557,-0.5923,-0.3047,0.8139,-26.5,-34.75,0.25,29.37,-77.05,-69.81,49678,2015-10-08 14:06:26:588
3.486,12.8138,1.2258,2.6787,9.3989,0.8101,0.8073,3.4149,0.4157,0.3771,-0.735,0.1832,-29.75,-33.5,-1.25,22.8,-73.42,-73.17,49779,2015-10-08 14:06:26:689
0.8428,8.0445,1.1684,2.7159,9.4136,0.4228,-2.0838,-1.3499,0.5924,-0.1214,-0.9737,0.0916,-32.75,-30.5,0.0,14.91,-73.8,-79.41,49878,2015-10-08 14:06:26:788
1.2067,9.2512,1.1109,2.9663,9.3461,-0.1503,-1.8937,-0.4013,1.357,0.3792,-1.3912,0.7627,-33.75,-30.25,2.25,0.68,-72.37,-92.9,49979,2015-10-08 14:06:26:889
3.1795,10.975,1.494,3.5148,9.1233,-0.763,-0.7567,1.89,1.6824,-0.1662,-1.1526,0.5156,-34.5,-30.25,6.5,0.77,-69.18,-101.15,50078,2015-10-08 14:06:26:988
2.9688,9.0788,-0.5746,3.8847,9.0016,0.2265,-0.686,-0.3441,0.1374,-1.4679,-0.1726,0.1236,-34.5,-26.5,12.5,26.36,-67.34,-93.47,50179,2015-10-08 14:06:27:089
3.869,8.9639,0.1915,3.8046,9.002,0.8118,-0.0313,-0.0764,-0.7735,0.3984,0.4282,-0.1044,-34.25,-25.75,13.0,47.4,-66.35,-78.79,50279,2015-10-08 14:06:27:189
2.624,9.3278,0.1532,3.405,9.1885,-0.3844,-0.7809,0.1393,0.5376,1.9303,0.4645,-0.6456,-33.75,-26.25,11.0,43.01,-67.2,-80.14,50378,2015-10-08 14:06:27:288
0.8045,9.8258,1.6281,2.8019,9.2227,-1.8057,-1.9975,0.6031,3.4338,2.105,1.2059,-0.8053,-34.0,-25.75,12.0,340.97,-70.13,-122.8,50478,2015-10-08 14:06:27:388
2.49,12.0668,3.62,2.0457,9.069,-3.1208,0.1738,2.7504,5.5787,2.2264,2.4693,-1.3827,-33.25,-25.25,15.75,334.96,-69.76,-130.27,50578,2015-10-08 14:06:27:488
4.2713,12.9095,3.2944,1.5785,8.7919,-4.0473,2.6928,4.1176,7.3417,2.5162,3.4493,-2.6887,-34.0,-23.0,17.75,313.09,-66.96,-150.24,50679,2015-10-08 14:06:27:589
9.8833,14.1162,4.6735,1.6825,8.4506,-4.6827,8.2007,5.6656,9.3562,2.3883,4.3889,-4.1013,-33.75,-23.75,16.0,291.93,-59.51,-160.24,50779,2015-10-08 14:06:27:689
17.0659,12.9287,9.3853,3.1785,8.3156,-4.1131,13.1787,5.1685,12.8472,2.7207,5.2304,-5.4222,-30.5,-28.75,13.5,291.85,-59.52,-157.04,50878,2015-10-08 14:06:27:788
18.6556,10.4004,6.2824,4.0067,8.2543,-3.4617,14.218,2.4471,10.2345,3.2171,5.7716,-5.6608,-22.25,-34.25,12.5,301.7,-57.32,-130.83,50978,2015-10-08 14:06:27:888
18.4258,9.596,3.2944,3.945,8.4382,-3.0667,14.3926,1.2527,6.5028,2.2797,5.2347,-5.5309,-9.25,-37.25,16.25,127.04,-58.0,-128.77,51078,2015-10-08 14:06:27:988
20.1496,6.0142,2.7964,3.8432,8.6542,-2.5505,16.3778,-0.6127,5.2977,1.8323,4.6531,-4.5636,0.25,-31.5,26.5,93.64,-61.23,-124.81,51179,2015-10-08 14:06:28:089
18.8855,-2.9497,-7.6806,4.1438,8.2692,-3.2586,15.6111,-9.8605,-2.2942,2.6909,2.7377,-2.9529,1.5,-23.25,35.75,80.56,-60.5,-124.75,51278,2015-10-08 14:06:28:188
12.9095,-6.8187,-9.845,5.0528,6.9077,-4.7878,9.0916,-14.4011,-5.773,-0.4879,-0.9012,0.7499,-4.75,-14.25,41.25,60.57,-49.6,-132.98,51379,2015-10-08 14:06:28:289
11.2432,-1.8004,-1.1109,5.3008,6.2708,-5.3618,5.1996,-8.8886,2.7543,-3.362,-4.881,3.4941,-6.75,-8.25,44.5,56.93,-40.65,-134.46,51479,2015-10-08 14:06:28:389
23.444,5.4971,6.3782,5.822,5.7403,-5.4151,14.4742,-2.0573,10.6463,-4.4102,-6.5194,4.8619,-0.5,-13.5,42.75,60.78,-38.95,-135.9,51579,2015-10-08 14:06:28:489
27.9643,6.4165,12.3349,6.9786,5.443,-4.2241,20.9857,0.9734,16.5591,-4.6659,-8.177,4.1737,6.75,-28.5,31.75,100.06,-35.1,-128.43,51678,2015-10-08 14:06:28:588
27.3705,10.7835,17.9661,7.6495,4.3998,-4.2776,19.586,6.4936,22.2991,-2.6546,-7.6166,3.7455,4.0,-39.75,9.0,142.73,-29.46,-117.78,51778,2015-10-08 14:06:28:688
23.5973,10.3813,17.1233,7.0795,4.2763,-5.2692,15.0192,4.9276,22.1434,-2.2797,-6.2957,3.1638,-12.5,-39.25,-4.75,183.29,-25.57,-121.61,51879,2015-10-08 14:06:28:789
20.8008,9.6726,15.2271,5.9015,4.5794,-6.3539,14.4425,4.6752,22.0609,-1.975,-5.9101,3.3385,-29.5,-30.5,0.25,214.33,-26.24,-129.53,51979,2015-10-08 14:06:28:889
18.8089,8.1977,15.8209,5.4063,5.5362,-6.0244,13.4025,2.6616,21.8453,-2.9103,-5.5309,2.9124,-36.0,-19.75,13.5,274.28,-31.97,-137.98,52079,2015-10-08 14:06:28:989
19.0387,7.0677,17.3532,5.2425,6.4647,-5.1859,13.7962,0.603,22.5391,-3.7604,-5.8163,2.955,-30.0,-14.75,28.0,355.68,-41.24,-134.69,52179,2015-10-08 14:06:29:089
13.3692,9.6343,17.4489,6.1278,6.929,-3.2573,7.2415,2.7053,20.7063,-3.3449,-5.4052,3.215,-14.75,-21.0,33.5,72.64,-45.57,-120.33,52278,2015-10-08 14:06:29:188
-6.0908,21.2797,17.1999,6.7381,6.7945,-2.1454,-12.8289,14.4851,19.3453,-2.644,-2.7335,1.8834,-3.5,-29.0,28.5,115.39,-42.73,-111.04,52378,2015-10-08 14:06:29:288
-8.2169,23.0226,17.085,5.5888,8.0549,-0.2329,-11.4384,12.7856,14.6004,1.7769,1.992,-0.9183,-1.5,-38.5,15.75,141.86,-55.22,-92.39,52479,2015-10-08 14:06:29:389
6.4356,10.0748,9.9407,3.6087,9.1153,-0.2438,0.2288,1.8363,9.5964,2.9614,3.8903,-1.5595,-2.5,-42.25,8.5,150.06,-65.39,-90.61,52579,2015-10-08 14:06:29:489
11.9902,8.0637,11.0899,2.7568,9.3472,-1.0956,9.0033,-0.609,12.9113,3.722,4.7085,-1.6852,-1.0,-43.25,13.75,141.47,-70.27,-98.14,52679,2015-10-08 14:06:29:589
10.9559,6.3398,9.6726,2.4513,9.2157,-2.2873,8.2364,-2.9717,11.9791,3.2405,4.0033,-1.73,-3.5,-37.0,23.0,99.11,-72.04,-119.64,52778,2015-10-08 14:06:29:688
10.8601,5.612,7.106,2.5111,8.8639,-3.3611,8.6171,-2.4857,11.0991,2.4501,3.8903,-1.5127,-10.75,-26.25,30.5,29.42,-64.67,-143.24,52878,2015-10-08 14:06:29:788
10.9559,3.9265,5.861,3.1872,8.6342,-3.3858,7.7687,-4.7077,9.2468,0.3324,3.5814,-0.6008,-20.25,-17.75,31.75,17.04,-61.7,-136.73,52978,2015-10-08 14:06:29:888
12.7946,3.8499,5.7269,4.3461,8.4287,-2.4976,8.4485,-4.5789,8.2245,1.8152,2.3372,0.3281,-30.75,-13.5,25.0,12.92,-59.26,-119.88,53078,2015-10-08 14:06:29:988
14.8057,5.8227,-1.6281,5.5457,7.5987,-2.7703,9.26,-1.776,1.1423,1.5084,1.0205,-0.473,-38.5,-13.75,15.25,351.07,-50.79,-116.54,53178,2015-10-08 14:06:30:088
13.1968,9.9407,-11.1282,5.5487,7.3597,-3.3493,7.6482,2.5811,-7.779,0.1534,0.6626,-1.3593,-41.5,-11.75,12.0,341.46,-49.13,-117.12,53279,2015-10-08 14:06:30:189
11.5879,12.6414,-10.4962,3.8421,8.0729,-4.0296,7.7458,4.5685,-6.4666,1.747,-0.9715,-2.8741,-40.75,-11.75,6.0,317.5,-54.15,-127.76,53379,2015-10-08 14:06:30:289
8.849,9.098,-7.9679,1.1851,8.1531,-5.3191,7.6639,0.9448,-2.6488,1.3295,-2.4629,-3.1745,-36.75,-19.75,6.25,293.06,-55.12,-146.79,53479,2015-10-08 14:06:30:389
7.4891,6.0142,-8.1594,-2.7954,6.7064,-6.5864,10.2844,-0.6921,-1.573,0.9779,-3.8264,-3.232,-23.0,-28.75,16.5,258.71,-53.82,-179.28,53578,2015-10-08 14:06:30:488
2.3942,0.9768,-2.1835,-7.273,3.7199,-5.4256,10.1367,-3.1787,3.5031,2.1284,-3.4813,-2.8336,-6.75,-33.0,26.75,227.29,-28.55,133.21,53678,2015-10-08 14:06:30:588
-0.6321,0.5363,-0.5938,-9.0334,1.3143,-3.5833,8.4707,-1.1204,3.2278,2.1987,-2.938,-1.9303,15.25,-28.5,32.5,226.98,-12.26,116.3,53778,2015-10-08 14:06:30:688
0.8428,0.6321,1.6664,-9.7783,-0.4708,-0.5773,10.8558,1.1159,2.1416,-0.0767,-3.5729,-1.6085,34.5,-18.0,31.5,235.23,0.17,99.04,53879,2015-10-08 14:06:30:789
0.4788,-4.367,12.1051,-9.1237,-2.518,2.5667,6.3137,-4.2435,11.1145,-1.4637,-2.6589,-3.102,48.25,-5.25,22.25,246.07,14.88,74.29,53979,2015-10-08 14:06:30:889
-11.6646,-14.2503,18.7131,-6.4702,-5.3143,5.1054,-5.1944,-8.936,13.6076,-0.3899,-0.4623,-1.7918,55.25,4.0,7.25,245.91,32.81,51.72,54078,2015-10-08 14:06:30:988
-7.4316,-10.094,9.1363,-6.8977,-5.703,4.0085,-4.0624,-7.384,7.196,-0.4474,1.4892,1.9516,54.75,12.5,-0.25,239.7,37.83,56.34,54178,2015-10-08 14:06:31:088
-4.865,-7.5082,5.9185,-8.4126,-4.4396,2.3849,3.2254,-3.1575,3.7128,-0.8842,2.5119,3.1574,54.75,14.0,2.25,237.46,30.66,68.99,54278,2015-10-08 14:06:31:188
-2.4134,-5.0566,3.0263,-9.6851,-1.422,-0.5887,7.9213,-4.0986,3.6814,-2.5715,3.8136,4.1737,53.75,4.0,12.0,236.81,14.47,87.36,54378,2015-10-08 14:06:31:288
5.5545,-5.5354,-0.6321,-8.4256,3.0713,-3.9681,11.0289,-7.5926,5.5394,-4.8576,4.5956,4.3441,44.0,-13.0,23.5,241.16,-9.45,108.77,54478,2015-10-08 14:06:31:388
11.7986,2.8922,1.494,-5.0394,7.6985,-3.3924,18.1583,-3.3549,3.8133,-5.9335,0.9183,4.3995,22.25,-32.0,27.0,302.09,-51.72,123.95,54578,2015-10-08 14:06:31:488
24.1336,14.7866,-7.5657,2.1566,9.5664,-0.058,21.1548,4.882,-6.1495,-3.5622,-2.8762,2.4245,-3.5,-45.5,9.5,25.18,-83.34,-150.58,54678,2015-10-08 14:06:31:588
26.8342,9.2703,8.7149,4.9431,8.3652,1.3267,21.4123,2.7439,3.8064,-3.2768,-5.1175,-0.5625,-23.0,-41.75,-5.5,148.73,-58.54,-74.98,54779,2015-10-08 14:06:31:689
25.5509,1.3982,15.2654,6.3987,7.0418,2.3749,19.2288,-5.6436,12.7373,-2.4096,-5.2816,-2.8251,-35.25,-34.75,-7.5,37.59,-52.45,-73.02,54878,2015-10-08 14:06:31:788
9.098,-3.371,23.7122,6.1609,6.9684,3.1072,6.4421,-9.3817,19.5706,-1.6512,-3.4557,-3.5644,-34.5,-38.25,-2.0,88.41,-44.86,-69.55,54978,2015-10-08 14:06:31:888
-13.6182,-9.9599,39.2266,3.2057,6.2622,6.8322,-16.8239,-16.2221,32.3944,1.9793,1.8983,1.3998,-22.25,-45.75,0.5,145.87,-39.69,-25.14,55079,2015-10-08 14:06:31:989
8.9447,-1.6664,14.1545,0.9791,6.635,7.1546,9.216,-8.6994,7.4544,2.9678,5.452,1.7577,-10.0,-50.5,0.75,165.23,-39.47,-12.63,55179,2015-10-08 14:06:32:089
19.3452,0.0192,18.4832,-0.025,8.0467,5.6054,19.3701,-8.0275,12.8778,2.6759,6.0954,2.2243,-13.0,-49.5,7.0,159.84,-52.96,0.57,55279,2015-10-08 14:06:32:189
29.8413,-4.1755,16.6445,2.4585,8.9267,3.2312,27.3829,-13.1022,13.4133,7.41,5.1495,2.595,-27.25,-42.0,8.0,128.87,-60.2,-12.37,55379,2015-10-08 14:06:32:289
28.6921,-6.5697,6.6846,4.9959,8.3033,-1.5056,23.6962,-14.873,8.1902,7.7594,4.5742,-1.9601,-39.75,-29.75,3.25,64.13,-66.46,-62.26,55479,2015-10-08 14:06:32:389
25.7808,-6.8378,0.6704,5.8001,7.1928,-3.2852,19.9807,-14.0307,3.9556,5.5287,3.8584,-3.6475,-43.75,-25.0,0.25,307.81,-50.75,-115.79,55579,2015-10-08 14:06:32:489
19.6325,-14.6908,-13.6948,5.6727,6.5298,-4.6208,15.9469,-19.0265,-5.6736,2.3372,1.4594,-3.1234,-37.0,-30.0,-0.75,267.74,-44.19,-125.35,55679,2015-10-08 14:06:32:589
5.7078,-13.2926,-15.5336,5.4904,5.445,-6.0313,0.2173,-18.7376,-9.5022,-2.5225,-2.8336,2.6546,-25.5,-38.75,4.0,241.35,-39.73,-131.43,55779,2015-10-08 14:06:32:689
16.836,-7.8721,-4.8076,5.7432,4.8321,-6.3116,13.2572,-12.6659,0.6805,-3.7476,-3.3535,4.5444,-18.0,-42.5,5.5,199.33,-31.56,-138.63,55879,2015-10-08 14:06:32:789
25.4743,-7.2975,2.7007,7.1592,5.2162,-4.2081,18.3152,-12.5138,6.9087,-7.1586,-3.019,2.5225,-27.25,-36.5,1.25,218.82,-30.56,-128.57,55979,2015-10-08 14:06:32:889
28.8453,-6.3015,8.7724,8.0403,5.2657,-1.9485,20.8051,-11.5673,10.7209,-6.5897,-4.1609,-0.4155,-38.5,-25.75,-5.0,258.61,-32.56,-108.82,56079,2015-10-08 14:06:32:989
30.3968,-6.7995,14.4993,8.2951,5.1236,-1.0541,22.1017,-11.9232,15.5533,-5.1005,-5.1964,-1.7023,-46.5,-14.25,-5.0,317.09,-31.5,-97.24,56179,2015-10-08 14:06:33:089
22.946,-4.3479,17.5256,7.9433,5.7309,-0.4801,13.7349,-10.2284,18.7269,-3.7796,-4.6722,-2.4586,-48.25,-15.25,5.75,10.92,-35.76,-93.46,56279,2015-10-08 14:06:33:189
-18.4449,9.0597,32.2547,6.078,7.6408,0.9204,-24.5229,1.4189,31.3343,-1.4658,-2.2967,-0.9353,-38.5,-29.5,15.75,63.65,-46.2,-91.07,56378,2015-10-08 14:06:33:288
1.2067,2.2984,25.3977,3.3234,8.0722,4.4683,-2.1167,-5.7737,20.9294,3.3471,4.6382,1.0227,-23.0,-40.5,21.0,126.52,-54.27,-43.07,56479,2015-10-08 14:06:33:389
16.2614,4.4436,18.7705,1.7365,8.5697,4.4402,14.5249,-4.126,14.3303,2.497,7.4036,0.5965,-19.0,-43.25,18.5,140.93,-60.91,-21.36,56579,2015-10-08 14:06:33:489
25.685,2.6432,20.9349,0.8185,8.6821,4.4858,23.2768,-5.6941,18.5943,4.3314,6.8944,1.6022,-30.0,-38.5,13.0,135.93,-61.26,-15.28,56679,2015-10-08 14:06:33:589
22.2182,-1.8004,16.089,1.9622,9.5124,1.3546,20.256,-11.3128,14.7344,5.0089,5.827,0.669,-37.75,-33.75,-3.75,58.56,-74.66,-38.26,56779,2015-10-08 14:06:33:689
20.0921,-5.8802,9.4236,3.8945,8.8032,-1.8725,17.9214,-14.0513,9.2467,6.2361,3.6965,-0.0831,-36.0,-32.5,-12.25,340.67,-74.19,-90.61,56879,2015-10-08 14:06:33:789
25.0146,-8.1594,-4.8267,4.7138,7.7077,-3.8135,20.5165,-14.5649,-0.7729,2.1284,2.8421,-3.3066,-31.75,-37.25,-11.25,268.27,-56.68,-123.28,56979,2015-10-08 14:06:33:889
13.0053,-11.5879,-16.6253,5.0336,6.8134,-4.9407,7.9984,-18.0582,-11.2182,-1.3955,-4.847,2.3308,-22.5,-41.75,-3.25,220.21,-44.01,-134.47,57080,2015-10-08 14:06:33:990
19.9581,-7.4699,-0.0383,4.5582,6.6481,-5.5853,14.9402,-13.8499,4.8383,-5.1559,-4.8342,1.4722,-16.5,-43.25,-1.5,209.5,-39.52,-140.99,57179,2015-10-08 14:06:34:089
22.3523,-9.6343,9.979,4.6985,8.1451,-2.7842,17.6729,-17.9901,11.9014,-7.4526,-4.4038,0.2322,-22.25,-40.5,-5.25,221.1,-51.7,-132.62,57279,2015-10-08 14:06:34:189
29.2667,-3.8307,17.9469,7.1298,6.4857,1.8088,22.1369,-10.3164,16.1381,-5.3008,-5.8739,-0.5582,-30.75,-32.25,-15.25,288.9,-47.54,-78.8,57378,2015-10-08 14:06:34:288
29.6498,-7.5465,27.8877,8.4838,4.3591,2.279,21.166,-11.9056,25.6087,-4.9258,-5.8952,-2.3372,-41.5,-24.5,-14.5,231.63,-26.39,-74.96,57478,2015-10-08 14:06:34:388
9.3853,-2.6815,25.4743,8.2958,4.6941,2.3057,-3.3985,-7.6341,22.8107,-3.0403,-3.3194,-2.955,-45.0,-24.25,-0.5,91.52,-28.6,-74.47,57579,2015-10-08 14:06:34:489
-9.0788,3.4668,31.048,6.2676,5.366,5.3004,-23.1675,-3.5846,31.0525,3.134,0.9225,2.7953,-35.25,-34.75,7.5,104.24,-33.3,-58.12,57679,2015-10-08 14:06:34:589
10.0173,-2.8347,13.963,5.5156,5.5963,5.8677,3.4608,-7.7481,8.0867,3.9926,3.6134,2.9316,-31.5,-37.25,8.5,128.32,-33.19,-46.98,57778,2015-10-08 14:06:34:688
18.7897,-6.359,10.5919,5.3906,5.5443,6.031,13.4211,-12.0284,4.6584,3.5601,3.7007,2.5012,-36.25,-31.0,11.5,125.12,-34.8,-43.23,57879,2015-10-08 14:06:34:789
20.1304,4.0031,2.5857,5.3679,6.3423,5.2088,14.9693,-2.5475,-2.5739,2.2285,2.8826,0.0149,-49.5,-6.0,0.75,63.05,-40.3,-45.86,57979,2015-10-08 14:06:34:889
23.444,12.8521,2.9497,3.7938,8.0011,4.2143,19.6502,4.851,-1.2646,2.5502,1.7918,-2.9508,-48.75,0.75,-12.25,39.37,-54.67,-41.99,58079,2015-10-08 14:06:34:989
18.0619,11.722,3.4668,1.0504,9.6108,1.6429,16.9157,1.6515,1.1344,3.1532,0.522,-3.9095,-44.5,-7.5,-21.0,33.33,-78.53,-32.59,58179,2015-10-08 14:06:35:089
12.1625,3.5051,5.2481,-2.2984,9.4585,-1.1931,14.461,-5.9534,6.4412,3.5388,-0.5241,-4.8768,-36.5,-25.25,-19.75,144.76,-85.87,82.23,58279,2015-10-08 14:06:35:189
6.0142,0.5555,3.0837,-5.6345,7.1196,-3.7059,11.6487,-6.5641,6.7897,2.9529,-0.5816,-4.2653,-20.0,-42.5,-7.75,185.45,-55.9,122.77,58379,2015-10-08 14:06:35:289
0.2873,-3.5243,0.4022,-7.8484,3.2878,-4.8747,9.3782,-5.2133,6.8825,3.1106,-1.0333,-3.6304,0.5,-47.25,8.0,186.29,-28.65,122.64,58479,2015-10-08 14:06:35:389
-0.0192,-5.1332,-2.3559,-8.8835,-2.5224,-3.3002,9.0176,-2.5533,1.1167,2.8251,-2.5481,-2.9721,19.5,-39.75,20.5,190.09,-0.62,118.36,58578,2015-10-08 14:06:35:488
-7.9679,-13.5225,5.3056,-7.7735,-5.7754,-1.5453,-4.753,-10.2753,8.1533,1.534,-0.882,-1.9367,35.25,-23.5,25.0,198.48,22.0,107.32,58678,2015-10-08 14:06:35:588
-12.9095,-13.6948,2.2793,-7.2213,-6.6158,0.505,-4.7306,-7.2323,1.6402,-0.2471,0.0959,-0.1342,44.0,-6.25,23.0,218.28,42.42,86.0,58778,2015-10-08 14:06:35:688
-11.1666,-15.4378,0.4597,-6.9632,-6.8744,-0.6534,-4.2225,-9.5594,1.3621,-2.0815,0.4858,1.6554,46.25,1.5,19.75,206.02,44.51,95.36,58878,2015-10-08 14:06:35:788
-4.8459,-7.9487,2.2793,-8.0445,-5.2958,-1.847,3.0837,-3.1893,3.9156,-2.154,1.1377,3.7135,46.5,-0.75,20.5,199.49,32.69,102.93,58979,2015-10-08 14:06:35:889
-0.2682,-8.102,4.3287,-8.736,-0.6153,-4.4129,8.5853,-6.4708,8.2179,-2.8805,2.6674,5.9314,43.0,-14.0,21.5,193.1,20.06,108.69,59079,2015-10-08 14:06:35:989
13.3118,-11.4347,5.4779,-5.8541,5.0653,-6.0202,19.1658,-16.5,11.4982,-3.0957,2.9337,7.5229,29.25,-33.75,21.25,180.08,-16.45,125.86,59178,2015-10-08 14:06:36:088
26.0106,-8.8298,8.7724,3.526,8.1248,-4.2101,23.7296,-16.9929,12.7527,-2.9913,0.4836,7.0904,0.0,-43.25,11.25,157.55,-55.94,-140.05,59279,2015-10-08 14:06:36:189
32.5228,-13.6565,13.6948,9.6656,1.6558,-0.074,23.225,-17.9627,15.5766,-2.4224,-0.3132,7.1543,-30.0,-30.75,-7.0,195.83,-9.72,-90.44,59378,2015-10-08 14:06:36:288
36.3919,-25.3019,22.199,7.7998,-5.4475,2.3788,28.5921,-19.8545,19.8203,-5.7269,1.5915,6.0848,-41.75,0.5,-17.0,189.39,33.74,-73.04,59479,2015-10-08 14:06:36:389
23.693,-3.5817,24.4209,5.2064,-8.2754,0.7626,18.666,4.836,24.2166,-6.4704,0.5561,2.742,-31.25,31.0,-10.75,189.44,49.34,-71.32,59579,2015-10-08 14:06:36:489
16.2423,29.4391,28.6155,5.7721,-7.9044,-0.6118,10.1864,37.1444,28.9686,-1.1356,-0.4708,0.2621,-16.5,40.75,13.75,50.04,53.71,-96.05,59679,2015-10-08 14:06:36:589
17.9661,-7.853,17.7362,8.3406,-2.972,4.2156,9.6255,-4.8809,13.5206,3.183,2.3415,-4.2866,-10.25,37.75,26.5,37.56,17.64,-63.19,59779,2015-10-08 14:06:36:689
31.9099,-13.9247,22.0267,7.2197,0.7083,6.5988,20.9744,-14.5563,15.7534,5.2752,1.8791,-3.1447,-21.5,38.25,18.75,36.5,-4.14,-47.57,59879,2015-10-08 14:06:36:789
33.4039,-7.2975,10.3621,4.7003,6.0537,6.118,29.1689,-15.8316,8.254,5.1239,2.7846,-5.1239,-35.5,32.5,-1.5,34.42,-38.12,-37.53,59979,2015-10-08 14:06:36:889
24.5932,-2.4708,11.7795,0.9084,8.9405,3.9259,24.5474,-11.7051,8.0757,4.9045,1.3422,-5.0131,-41.25,8.75,-19.5,35.62,-46.22,-32.42,60078,2015-10-08 14:06:36:988
16.8935,-1.992,10.8793,-2.6581,9.414,-0.6934,19.1216,-11.2003,9.4884,5.1431,-0.6669,-4.7362,-32.75,-22.25,-23.25,73.58,-77.3,13.18,60178,2015-10-08 14:06:37:088
10.1897,-8.8873,7.5465,-6.3846,6.0688,-4.3101,16.5743,-14.9561,11.8567,5.4435,-2.1241,-4.5508,-15.75,-43.5,-6.5,177.15,-64.08,118.59,60278,2015-10-08 14:06:37:188
-4.1946,-20.8774,4.9033,-8.5843,1.3362,-4.5491,9.3505,-17.7317,5.1045,0.6924,-1.7385,-5.2326,6.5,-44.0,16.75,195.74,-7.83,117.92,60379,2015-10-08 14:06:37:289
-21.452,-23.5973,-1.7621,-8.5849,-4.0257,-2.5027,-15.2039,-22.9426,4.4563,1.6022,0.7244,2.6994,28.75,-27.5,28.0,205.54,24.24,106.25,60479,2015-10-08 14:06:37:389
-6.4165,-6.8953,1.9537,-9.0799,-1.6935,-3.2952,3.5636,-4.6846,5.3255,-0.6818,2.4032,3.3556,36.0,-14.0,31.0,212.21,19.97,105.24,60579,2015-10-08 14:06:37:489
-2.2601,-5.0182,5.3056,-7.5427,1.5033,-6.0842,6.6617,-7.1727,12.2134,-2.823,3.3961,2.8421,30.25,-20.25,34.0,217.58,4.78,114.75,60678,2015-10-08 14:06:37:588
5.9759,-9.5002,8.7532,-3.163,5.7777,-7.2653,10.5372,-15.5652,16.8229,-4.7447,3.8136,4.9066,12.0,-31.0,34.0,213.65,-36.1,156.47,60779,2015-10-08 14:06:37:689
25.685,-10.0556,12.7755,2.4654,8.1575,-4.8525,18.3737,-18.5388,15.2338,-2.3798,0.3281,7.3354,-8.75,-38.75,20.0,162.5,-49.28,176.96,60879,2015-10-08 14:06:37:789
37.2921,-15.8017,16.587,9.7241,-0.7148,1.0497,27.5672,-16.9866,16.1475,-3.6986,-0.1108,7.5144,-32.0,-27.75,-3.0,171.76,-29.55,-100.73,60979,2015-10-08 14:06:37:889
36.2961,-15.2654,21.3946,6.7345,-6.856,1.9525,30.7855,-10.5122,19.4599,-4.7085,1.0695,6.5386,-42.25,4.0,-15.25,185.98,23.62,-78.42,61079,2015-10-08 14:06:37:989
18.8472,9.7875,16.2423,4.4613,-8.7306,-0.2088,16.673,14.4264,15.1591,-5.4819,1.1931,3.1319,-30.25,34.5,-8.75,190.29,52.32,-74.84,61179,2015-10-08 14:06:38:089
18.5982,19.9198,12.2966,5.431,-8.1581,0.3471,13.4682,30.4914,13.3076,1.1377,0.6669,-2.4054,-13.5,45.75,10.5,37.62,56.29,-86.34,61278,2015-10-08 14:06:38:188
22.0458,-0.498,10.0556,8.0393,-4.7785,2.9505,13.0917,5.4977,7.1032,2.7313,1.2528,-4.7021,-7.75,47.0,17.75,27.08,39.02,-74.75,61379,2015-10-08 14:06:38:289
38.0008,-7.6614,13.5991,8.4372,0.9793,4.9014,29.5635,-8.6408,8.6976,2.416,2.7143,-6.5237,-21.25,42.75,9.5,23.52,-5.73,-59.85,61478,2015-10-08 14:06:38:388
35.3193,-5.363,13.1202,5.6178,5.6338,5.7333,29.4123,-11.2193,8.8998,2.3691,3.0147,-6.6387,-38.75,27.0,-6.0,30.45,-35.06,-44.42,61579,2015-10-08 14:06:38:489
23.0226,-6.4356,10.8218,0.5534,9.2894,3.0937,22.8993,-15.4824,8.3648,6.0464,0.9651,-5.4243,-43.0,-3.5,-19.0,58.46,-71.31,-10.14,61679,2015-10-08 14:06:38:589
10.5536,-4.9033,6.5122,-3.1326,9.1534,-1.6039,13.4066,-14.207,7.7256,5.795,-0.326,-4.5785,-28.5,-33.5,-15.5,179.18,-68.97,117.11,61779,2015-10-08 14:06:38:689
7.3741,-4.865,6.0717,-6.359,5.7849,-4.7189,13.082,-11.5118,10.1394,4.9258,-2.7079,-3.6666,-7.75,-45.75,7.25,195.11,-36.15,126.58,61879,2015-10-08 14:06:38:789
-1.1875,-19.575,0.8811,-8.6619,0.6955,-4.5451,7.4744,-20.2705,5.4262,-0.718,-2.4821,-5.0494,3.0,-43.25,19.0,195.11,-36.15,126.58,61979,2015-10-08 14:06:38:889
-11.9519,-18.2725,-1.5514,-8.8899,-3.6826,-1.8916,-6.5862,-20.2402,1.7383,3.2235,0.4645,2.9657,34.5,-18.5,29.25,213.54,22.06,102.01,62079,2015-10-08 14:06:38:989
-1.245,-5.363,2.2218,-9.303,-1.4327,-2.7516,6.7641,-5.113,5.0643,-0.049,1.7172,3.2917,40.5,-11.25,29.5,223.81,8.4,106.48,62179,2015-10-08 14:06:39:089
0.1149,-0.5555,1.6089,-8.2519,1.554,-5.0657,10.1482,-2.8564,7.4982,-3.2512,3.4557,2.3393,35.5,-16.5,32.5,228.62,-3.34,115.8,62278,2015-10-08 14:06:39:188
3.3327,4.4245,5.4588,-2.9214,8.1177,-4.6626,8.7632,-2.9079,9.2786,-5.4712,1.9281,4.3058,18.75,-33.75,33.0,277.45,-29.19,135.97,62378,2015-10-08 14:06:39:288
17.3915,15.5527,-5.1906,1.4507,9.6538,-0.9331,15.9408,5.899,-4.2576,-3.7476,-2.3819,2.7058,-2.5,-46.75,12.5,88.19,-79.87,-122.75,62479,2015-10-08 14:06:39:389
18.9238,14.7674,-0.7661,4.2951,8.7559,1.0276,14.2073,5.1879,-1.5639,-3.3151,-3.4621,-0.571,-20.75,-42.0,-9.0,167.89,-70.79,-86.07,62578,2015-10-08 14:06:39:488
18.4258,5.1523,5.8802,4.6098,8.4263,1.9795,13.567,-3.906,4.1688,-2.0261,-3.8797,-1.9047,-33.0,-35.0,-16.5,352.94,-59.23,-66.76,62678,2015-10-08 14:06:39:588
20.1688,0.2873,9.5768,4.9334,8.2237,2.05,15.5035,-7.9747,7.6226,-0.914,-4.9982,-1.8791,-37.5,-33.0,-13.5,6.05,-58.25,-64.41,62778,2015-10-08 14:06:39:688
15.9741,-0.2873,19.4026,5.2437,7.9879,2.2064,9.2747,-8.3135,18.0006,-1.3231,-4.8555,-2.2328,-35.5,-38.75,-5.0,17.48,-56.09,-69.16,62879,2015-10-08 14:06:39:789
-20.4178,-0.8428,30.1669,3.7272,8.0525,4.1755,-24.145,-8.8953,25.9914,-0.4005,-1.24,0.0085,-26.5,-46.5,3.75,123.29,-55.2,-41.75,62979,2015-10-08 14:06:39:889
3.2944,1.7047,20.2645,1.2665,7.9707,5.5708,2.0279,-6.2661,14.6937,4.1737,5.0302,1.8514,-17.75,-47.5,8.25,147.62,-54.37,-12.81,63078,2015-10-08 14:06:39:988
20.1688,-0.1915,20.6093,1.4363,8.9295,3.7909,19.2496,-9.6957,16.7417,4.342,5.9186,1.0312,-22.25,-42.5,11.25,144.53,-59.1,-12.28,63178,2015-10-08 14:06:40:088
30.2436,-2.9497,18.6939,3.4437,8.8831,2.3242,26.5892,-12.0051,16.0824,6.1679,6.4939,0.1641,-35.25,-32.5,10.0,110.11,-66.08,-29.7,63278,2015-10-08 14:06:40:188
27.3131,-6.4931,11.6646,5.1023,8.3531,0.6023,22.2108,-14.8462,11.0622,5.9506,6.072,-1.0397,-42.75,-23.5,-0.5,37.48,-61.34,-76.35,63379,2015-10-08 14:06:40:289
25.0338,-6.1866,5.9185,5.4893,8.0572,1.0584,19.5445,-14.2438,4.8601,3.4238,6.464,-1.4935,-40.75,-25.25,-11.5,351.58,-55.25,-79.09,63478,2015-10-08 14:06:40:388
16.1465,-9.3278,-11.4539,4.0332,8.5405,2.6388,15.5741,-17.3942,-12.3287,-1.7236,4.7745,-2.7867,-28.25,-32.75,-18.0,1.2,-60.56,-56.8,63578,2015-10-08 14:06:40:488
18.1959,-6.5697,-9.8258,5.9191,7.7775,0.8035,12.2768,-14.3472,-10.6293,-3.6326,-5.0217,0.9033,-9.0,-38.75,-23.0,236.6,-52.47,-82.27,63679,2015-10-08 14:06:40:589
24.44,-9.9024,3.735,7.3547,6.4629,0.5564,17.0853,-16.3653,3.1786,-5.3583,-6.2041,0.5433,-5.75,-40.75,-24.5,236.6,-52.47,-82.27,63778,2015-10-08 14:06:40:688
23.8271,-12.7372,14.4993,8.3691,4.1932,2.9232,15.458,-16.9304,11.5761,-6.1934,-4.1268,-2.8634,-22.75,-26.25,-34.0,248.97,-25.31,-70.75,63879,2015-10-08 14:06:40:789
25.2253,-13.7906,18.3683,8.9757,2.9518,2.6255,16.2736,-16.6215,16.1777,-4.2973,-5.7375,-2.4331,-34.25,-10.75,-33.25,275.48,-17.52,-73.7,63978,2015-10-08 14:06:40:888
25.3402,-14.5376,24.1336,9.5782,1.9075,0.8885,16.159,-16.7107,22.6265,-3.4067,-5.5713,-1.355,-44.5,-7.75,-18.5,274.12,-11.22,-84.7,64079,2015-10-08 14:06:40:989
7.9871,-5.3056,20.7434,9.4476,2.5651,0.5781,-1.4605,-7.8706,20.1652,-3.3833,-1.7683,-2.1753,-46.5,-10.25,-7.25,272.09,-12.46,-88.2,64179,2015-10-08 14:06:41:089
-15.8783,2.0494,30.7224,8.9419,2.8452,2.8491,-24.8203,-0.7958,27.8733,2.9337,-3.4174,3.5537,-37.5,-27.5,12.25,126.33,-16.87,-72.33,64279,2015-10-08 14:06:41:189
15.5144,-3.5817,21.9309,7.0098,2.3482,6.4436,8.5047,-5.93,15.4873,3.8733,4.864,1.7279,-35.5,-26.5,16.5,121.09,-13.85,-47.41,64378,2015-10-08 14:06:41:288
32.4845,-7.3741,36.6409,2.6764,3.415,8.7946,29.8081,-10.7891,27.8463,6.8923,7.5357,1.4083,-42.75,-12.75,10.0,112.84,-15.39,-35.24,64478,2015-10-08 14:06:41:388
30.2819,-10.7452,22.2182,1.0244,7.7961,5.8602,27.4954,-17.9092,14.6917,9.5916,4.3782,-0.8948,-44.0,-6.75,-14.5,91.67,-27.54,-12.07,64578,2015-10-08 14:06:41:488
14.8057,-8.9064,16.5487,0.2199,9.7805,-0.6809,14.854,-19.6255,16.1187,7.4462,4.4081,-0.1619,-31.75,-22.5,-26.0,56.72,-78.9,-3.53,64679,2015-10-08 14:06:41:589
15.5527,-8.6191,0.6321,1.7982,7.3974,-6.1819,13.7546,-16.0165,6.8139,4.1694,2.9742,-1.5915,-20.75,-39.75,-13.25,217.29,-48.97,-163.78,64778,2015-10-08 14:06:41:688
9.4236,-16.1082,-20.8774,3.3915,5.7322,-7.198,7.4297,-22.8647,-12.4346,-0.7947,0.441,-0.7478,-14.5,-41.75,6.75,201.43,-38.0,-156.75,64879,2015-10-08 14:06:41:789
13.1777,-8.6574,-4.9608,3.1337,6.6279,-6.5132,9.4306,-15.5832,-0.2505,-4.7298,-3.8009,2.0751,-10.25,-43.5,12.75,189.2,-42.52,-154.31,64979,2015-10-08 14:06:41:889
19.6325,-11.2623,4.367,3.5928,8.3903,-3.5867,15.7471,-17.8801,6.7596,-7.2843,-4.668,1.9345,-10.75,-44.75,3.75,199.16,-58.82,-134.95,65079,2015-10-08 14:06:41:989
27.7919,-17.0276,14.2694,6.5472,7.1758,1.3463,21.1628,-24.2816,12.0736,-9.1868,-4.6957,1.6618,-20.5,-39.75,-10.5,206.72,-47.03,-78.38,65178,2015-10-08 14:06:42:088
30.7607,-16.3572,20.571,9.4247,0.9466,2.5397,22.6812,-17.1986,18.883,-4.0991,-5.942,3.0616,-34.0,-22.5,-19.25,207.5,-5.54,-74.92,65279,2015-10-08 14:06:42:189
32.1398,-14.9398,20.5901,8.5042,-4.8484,-0.5856,22.4672,-8.4443,21.4055,-3.3748,-3.8307,5.4243,-44.5,-1.25,-5.75,201.94,29.63,-93.94,65378,2015-10-08 14:06:42:288
10.5536,-0.3639,16.2423,6.9098,-6.7046,-1.8638,3.8127,6.4654,18.2649,-4.8874,0.1385,3.1468,-38.5,14.75,20.0,151.99,43.13,-105.1,65478,2015-10-08 14:06:42:388
18.8472,22.946,14.5759,5.2687,-8.2139,-0.9707,12.687,30.4547,14.693,1.8195,0.3047,2.0197,-26.75,17.0,35.25,121.74,56.89,-100.44,65579,2015-10-08 14:06:42:489
14.8249,0.4405,10.3238,6.9148,-5.7598,3.8963,8.8487,3.7295,6.5616,3.2725,2.1199,-2.5502,-14.75,23.25,39.5,83.45,49.87,-78.09,65678,2015-10-08 14:06:42:588
26.8725,-9.4427,17.6788,6.849,-1.5159,6.853,25.4101,-10.0081,13.2078,6.5024,0.8096,-3.1276,-20.25,30.75,30.75,48.56,8.89,-44.98,65778,2015-10-08 14:06:42:688
39.2266,-13.0628,19.4792,6.0955,3.7712,6.6928,33.3539,-17.8072,12.2351,5.9868,2.7633,-6.4896,-30.25,33.25,11.5,40.99,-22.62,-42.33,65879,2015-10-08 14:06:42:789
29.3625,-8.3893,12.9478,1.8109,8.775,3.9862,28.3336,-17.2207,7.9883,4.5849,1.2549,-6.9924,-41.5,16.0,-8.0,49.72,-63.48,-24.43,65979,2015-10-08 14:06:42:889
15.0547,-4.5969,6.7995,-2.6702,9.3901,-0.9306,18.3252,-14.4484,7.1817,4.9087,-0.4687,-5.4243,-36.5,-20.0,-12.75,179.42,-73.24,109.21,66078,2015-10-08 14:06:42:988
8.6574,-3.735,3.735,-6.0479,6.5117,-4.1461,15.0118,-10.1892,8.245,5.4478,-3.6134,-3.8286,-16.75,-41.25,4.5,199.83,-41.61,124.43,66178,2015-10-08 14:06:43:088
6.2632,-6.857,8.102,-8.399,2.7955,-4.2205,14.6622,-9.6525,12.3225,4.0182,-3.7156,-3.918,5.0,-38.5,25.75,213.41,-16.56,116.68,66279,2015-10-08 14:06:43:189
-13.4841,-25.0912,11.3389,-9.0651,-3.3028,-1.7568,-4.4191,-21.7884,13.0957,0.294,-0.5859,-3.5026,28.0,-20.0,33.0,218.76,5.39,106.4,66379,2015-10-08 14:06:43:289
-11.1857,-13.9247,0.2107,-8.3618,-4.4618,-2.5184,-6.9512,-12.4438,2.6634,-0.8501,1.0823,3.0999,39.75,-2.0,30.75,217.94,27.06,106.76,66479,2015-10-08 14:06:43:389
-0.9385,-6.8761,2.7964,-8.8197,-1.1487,-4.1309,6.6399,-5.6431,6.6171,-0.9694,1.4445,3.8776,37.25,-0.5,33.0,248.59,6.73,115.1,66579,2015-10-08 14:06:43:489
2.739,-5.1332,3.9648,-7.222,2.1801,-6.2658,9.8595,-7.7868,10.4759,-2.5843,3.3705,3.428,31.75,-12.5,35.75,248.16,0.33,118.99,66678,2015-10-08 14:06:43:588
5.6695,-7.5465,8.2935,-1.3125,7.2062,-6.5206,9.4631,-13.1691,13.8334,-5.3796,3.7604,4.6957,16.75,-26.75,36.25,16.72,-36.42,155.55,66778,2015-10-08 14:06:43:688
23.7696,-8.6,10.1323,4.2039,8.1492,-3.4769,22.2719,-16.711,10.8206,-4.1481,2.7313,6.8433,6.25,-32.75,32.25,16.72,-36.42,155.55,66879,2015-10-08 14:06:43:789
39.2266,-15.5719,9.845,9.5852,-1.3965,1.5308,29.8532,-14.0448,8.1192,-4.815,1.2293,8.3197,-32.5,-30.5,-0.25,171.6,8.19,-80.93,66978,2015-10-08 14:06:43:888
39.1308,-17.0467,22.8503,5.5305,-8.0447,-0.9307,33.4504,-12.3027,21.9083,-6.8347,-1.4999,5.6161,-41.5,6.25,-11.75,181.39,38.68,-79.91,67078,2015-10-08 14:06:43:988
19.9198,2.873,13.3118,3.2965,-8.8571,-2.6181,16.6232,11.7302,15.9299,1.0717,-2.6909,3.0445,-35.25,24.75,-5.75,240.27,60.26,-117.3,67178,2015-10-08 14:06:44:088
13.4267,12.1051,1.6855,2.9932,-9.0184,-2.4248,10.4334,21.1235,4.1104,-2.1518,1.3699,-1.2954,-19.75,33.75,9.5,212.05,70.88,-131.61,67279,2015-10-08 14:06:44:189
7.7189,0.9577,10.2089,6.3221,-6.889,-2.957,-1.1314,9.0917,12.8211,1.992,0.8181,-1.8898,-0.5,38.5,28.0,51.53,50.39,-121.8,67379,2015-10-08 14:06:44:289
16.9893,-6.6846,8.5617,8.5723,-4.6012,1.2308,7.4205,0.8567,7.6804,3.2533,1.7385,-2.9529,-5.5,34.75,32.5,56.86,39.13,-99.03,67479,2015-10-08 14:06:44:389
23.6739,-10.7452,9.2129,8.828,-1.0263,4.1453,14.4168,-8.3853,5.8289,5.2283,0.4985,-2.8805,-17.0,32.75,29.5,49.68,19.72,-72.66,67578,2015-10-08 14:06:44:488
23.9612,-9.596,4.5203,8.0657,2.83,4.8069,15.5365,-11.5324,-0.1108,3.1127,1.6703,-4.9364,-29.25,34.0,14.5,42.8,6.01,-64.85,67679,2015-10-08 14:06:44:589
8.4084,-7.2592,1.0151,4.9114,6.5478,5.4014,4.7034,-14.5311,-5.0198,1.5851,2.0517,-3.7881,-40.25,25.75,-1.0,33.47,-35.52,-48.51,67779,2015-10-08 14:06:44:689
-1.0726,-5.6312,-5.7844,2.3536,8.4207,4.4411,-3.4262,-14.0518,-10.2255,0.5177,1.4083,-0.3174,-44.25,1.75,-13.75,43.29,-53.55,-34.09,67878,2015-10-08 14:06:44:788
2.6049,-4.2713,-2.7964,2.9501,8.4381,4.0331,-0.3452,-12.7094,-6.8295,0.1364,-0.8863,1.8834,-40.25,-18.0,-19.0,49.16,-60.76,-28.63,67979,2015-10-08 14:06:44:889
9.3661,-9.3087,1.743,5.5642,5.8616,5.5544,3.8019,-15.1702,-3.8115,-4.0416,-0.4964,4.9918,-38.0,-23.0,-21.25,38.86,-59.37,-36.18,68079,2015-10-08 14:06:44:989
29.0369,-16.9318,6.7612,8.0729,-2.9939,4.6943,20.964,-13.9379,2.067,-5.6267,-2.6333,7.3844,-41.25,-14.5,-21.75,149.7,-2.17,-52.93,68178,2015-10-08 14:06:45:088
12.1434,-3.6392,4.9991,6.4039,-6.5621,3.4784,5.7395,2.923,1.5207,0.6818,0.0937,1.5446,-40.25,14.75,-14.5,172.39,39.91,-67.88,68278,2015-10-08 14:06:45:188
8.4851,-0.6895,0.9768,5.3545,-7.1959,3.9646,3.1305,6.5064,-2.9878,0.4474,-1.0354,2.0347,-24.75,38.0,1.5,50.49,45.12,-55.73,68379,2015-10-08 14:06:45:289
11.4347,1.7813,2.5666,4.8912,-7.7486,3.4938,6.4116,9.7763,-0.288,-2.0602,0.8032,-0.4708,-14.0,46.25,4.25,28.13,51.43,-52.3,68479,2015-10-08 14:06:45:389
13.4075,-0.1341,3.4477,5.8957,-6.7343,4.0076,7.5578,5.9498,-1.1117,1.779,0.0362,-2.6738,-6.75,48.5,8.0,18.65,48.84,-56.12,68578,2015-10-08 14:06:45:488
16.338,-4.5011,1.6472,7.4528,-3.6276,5.2408,8.4064,-0.6628,-3.3638,1.289,-0.0554,-3.8946,-8.5,46.5,11.5,19.14,28.34,-54.79,68678,2015-10-08 14:06:45:588
14.3844,-7.0677,3.0263,7.6122,0.2867,6.176,6.7722,-7.3544,-3.1497,0.7926,1.9324,-3.5835,-17.75,43.75,6.25,19.74,8.28,-56.05,68778,2015-10-08 14:06:45:688
9.3661,-5.363,1.8004,6.1611,3.1682,6.9408,3.205,-8.5312,-5.1403,2.1412,1.3422,-2.5353,-31.75,32.75,-0.25,31.25,-6.43,-47.77,68878,2015-10-08 14:06:45:788
6.2441,-3.8882,0.5746,5.3395,4.8912,6.6134,1.8814,-9.5264,-5.9238,2.4139,0.1704,-1.0354,-40.5,19.5,-8.5,39.2,-25.37,-39.49,68979,2015-10-08 14:06:45:889
4.9991,-3.3136,-0.1724,5.1143,6.262,5.55,-0.1344,-9.384,-5.7223,0.9651,0.2258,0.6988,-44.5,6.25,-14.25,38.99,-35.16,-39.36,69079,2015-10-08 14:06:45:989
6.8761,-4.616,-0.3256,6.0564,5.1737,5.7204,0.8198,-9.7897,-6.0461,-1.0013,-0.0298,2.8656,-46.5,-1.25,-15.5,41.19,-36.88,-44.97,69179,2015-10-08 14:06:46:089
14.6525,-7.3358,1.3599,7.8255,0.6158,5.8782,5.8386,-9.058,-5.2943,-2.0943,-0.441,4.815,-47.25,0.5,-17.0,41.94,-31.84,-46.63,69279,2015-10-08 14:06:46:189
18.2342,-3.1029,4.6352,7.8377,-3.5946,4.6711,10.1558,0.4331,0.0345,-1.1356,-0.669,3.1383,-44.5,12.25,-15.25,93.12,15.6,-57.64,69379,2015-10-08 14:06:46:289
10.4196,-4.118,2.0686,7.1849,-4.4172,5.0036,3.2347,0.2991,-2.9351,0.9417,-0.1939,1.0504,-33.5,31.25,-9.0,37.13,25.78,-57.03,69478,2015-10-08 14:06:46:388
10.8601,-1.1684,-0.0383,7.0366,-4.6313,5.0207,3.9153,3.8023,-5.0329,0.8053,-1.2357,1.1462,-23.0,40.5,-6.5,18.67,27.51,-53.53,69579,2015-10-08 14:06:46:489
11.6262,-1.1301,0.7661,7.3518,-4.6952,4.4807,4.224,3.1817,-3.6516,-1.3252,-0.2493,-0.5433,-17.25,44.5,-8.0,4.68,28.6,-57.13,69679,2015-10-08 14:06:46:589
12.967,-4.7501,0.3831,7.8572,-3.9572,4.333,6.2971,-2.4709,-3.982,-2.122,1.1803,-2.5907,-14.25,46.5,-7.0,1.12,26.52,-60.92,69779,2015-10-08 14:06:46:689
11.473,-6.3015,2.2218,8.0596,-2.5839,4.9534,2.4557,-3.1047,-2.3868,-0.3174,1.828,-2.7122,-17.25,44.0,-2.25,10.12,18.5,-60.8,69879,2015-10-08 14:06:46:789
9.0405,-4.6352,-0.6321,7.9143,1.0508,5.6947,1.2794,-5.7626,-6.8056,4.4507,-0.8203,-2.5396,-27.0,40.0,2.0,18.89,11.4,-55.68,69978,2015-10-08 14:06:46:888
9.1554,-4.0223,-3.0646,8.1745,3.2201,4.3564,1.1916,-7.5489,-7.6125,-0.1577,-0.6988,-1.7279,-36.5,28.75,-3.5,20.46,-19.17,-61.95,70078,2015-10-08 14:06:46:988
5.7078,-3.8116,0.1724,7.7893,3.7048,4.666,-2.0815,-7.5163,-4.4936,-1.9516,0.5582,-1.1015,-43.75,18.5,-7.25,23.38,-23.06,-61.72,70178,2015-10-08 14:06:47:088
4.8459,-3.2944,0.0192,7.7543,2.5986,5.4119,-2.6786,-5.8739,-5.431,-0.5902,-0.1449,1.4125,-47.0,8.5,-5.75,35.39,-20.87,-56.78,70279,2015-10-08 14:06:47:189
9.6917,-4.7884,-0.5171,8.2813,0.3333,5.2421,1.4105,-5.1217,-5.7593,-0.0533,-0.4751,3.558,-48.0,7.5,-6.0,56.14,-11.98,-55.73,70379,2015-10-08 14:06:47:289
14.1737,-5.5162,0.3831,8.1669,-2.9762,4.5403,6.8398,-1.4821,-3.6526,0.4176,-0.4623,4.0011,-46.25,15.25,-5.75,70.88,4.12,-58.97,70478,2015-10-08 14:06:47:388
16.8169,-3.6009,0.2682,7.573,-4.7189,4.0684,8.9967,1.6611,-4.4423,1.5787,-0.686,1.7534,-38.0,27.75,-4.0,62.5,28.76,-61.75,70578,2015-10-08 14:06:47:488
12.3924,-1.6664,-2.9113,7.8021,-4.442,3.9453,2.6417,3.0706,-7.1977,-1.0376,0.539,-0.7073,-24.5,41.25,-5.75,30.48,28.02,-62.88,70678,2015-10-08 14:06:47:588
9.098,-2.7581,-0.0383,8.0848,-3.922,3.9274,1.0132,1.1639,-3.9657,-1.4701,0.7031,-1.2378,-18.25,43.75,-8.75,5.05,25.7,-63.39,70778,2015-10-08 14:06:47:688
12.3732,-3.6392,-0.1724,8.8219,-2.7351,3.2961,3.4747,-0.7892,-3.5068,0.816,-1.1356,-1.4722,-21.0,43.5,-5.25,6.25,19.86,-66.63,70879,2015-10-08 14:06:47:789
11.5113,-4.9799,0.5938,9.2652,-1.3928,2.8959,2.2653,-3.0316,-2.5703,-0.3089,-0.1832,-2.6951,-25.75,41.25,-2.25,6.98,12.74,-71.33,70978,2015-10-08 14:06:47:888
10.5345,-5.6312,0.7087,9.383,0.49,2.8087,1.1515,-6.1212,-2.1,-0.4431,0.277,-2.7036,-34.0,36.0,-0.5,14.54,-2.86,-73.34,71078,2015-10-08 14:06:47:988
7.3358,-4.616,0.3256,8.909,2.254,3.4235,-1.5731,-6.87,-3.0979,-0.2301,0.5965,-1.4552,-41.75,25.5,0.25,23.08,-11.46,-70.23,71178,2015-10-08 14:06:48:088
4.9225,-3.6009,-0.7278,8.5971,2.6042,3.9343,-3.6746,-6.205,-4.6621,0.3409,0.0959,0.2557,-46.0,13.25,0.25,37.91,-15.33,-66.37,71278,2015-10-08 14:06:48:188
6.2632,-4.3862,-2.6815,9.0853,1.0693,3.5334,-2.1517,-5.3597,-5.9659,-0.8053,-0.5731,2.4522,-48.0,6.5,-1.25,44.89,-14.7,-65.51,71378,2015-10-08 14:06:48:288
11.0899,-7.8338,-0.3639,8.4032,-4.1072,2.9475,3.9701,-3.5351,-2.507,-2.8187,0.1236,5.6587,-47.75,7.0,-1.0,102.35,12.93,-70.19,71479,2015-10-08 14:06:48:389
18.081,-1.9345,0.5938,6.3375,-7.3166,1.5727,11.552,5.2863,-0.4618,0.2194,-2.0943,3.0254,-43.25,19.5,2.25,131.69,42.22,-73.6,71579,2015-10-08 14:06:48:489
7.4124,-3.7924,-0.5555,7.043,-6.6974,1.3087,0.3695,2.9049,-1.8641,-3.771,2.9849,-0.49,-28.5,37.25,7.25,58.18,45.24,-79.72,71678,2015-10-08 14:06:48:588
6.7804,-4.1946,2.2218,7.0196,-6.7893,0.8951,-0.2392,2.5947,1.3267,-1.5638,0.7031,0.5177,-21.5,41.25,13.0,43.65,43.81,-82.73,71778,2015-10-08 14:06:48:688
9.2895,-2.0877,0.0383,6.5569,-7.226,0.9808,2.9899,5.3085,-0.9412,-1.0994,1.5468,0.7819,-25.0,34.75,19.75,72.01,47.46,-81.49,71879,2015-10-08 14:06:48:789
11.3006,-1.5897,-1.3599,6.7856,-6.8649,1.7316,4.515,5.2752,-3.0915,1.6682,0.2152,-0.946,-27.0,33.25,23.25,75.31,47.52,-80.12,71979,2015-10-08 14:06:48:889
13.1968,-1.9154,-0.8236,7.8973,-5.3407,2.2977,5.9411,3.377,-3.5363,1.453,-0.9374,-0.3174,-28.0,32.25,21.0,65.03,38.33,-72.25,72079,2015-10-08 14:06:48:989
9.845,-2.0494,0.1532,8.8539,-3.6294,2.1461,1.2083,2.0019,-2.1352,1.3273,-0.5603,-1.9643,-30.5,33.5,18.0,56.97,30.33,-74.8,72179,2015-10-08 14:06:49:089
10.5345,-4.5394,1.1492,9.4598,-1.7444,1.9075,1.9787,-3.1466,-1.1999,1.0461,-0.7222,-1.6895,-33.0,31.25,16.25,49.39,21.72,-76.38,72278,2015-10-08 14:06:49:188
10.5345,-4.5011,0.8236,9.6672,-0.6246,1.5249,0.8809,-3.7436,-0.7271,0.3579,-0.1214,-1.5297,-36.25,24.25,14.75,45.24,5.78,-80.52,72379,2015-10-08 14:06:49:289
8.9064,-4.3862,0.9577,9.633,0.3994,1.7934,-0.7266,-4.7856,-0.8357,-0.1364,0.5923,-1.6533,-40.0,20.5,13.5,43.17,-2.33,-79.45,72478,2015-10-08 14:06:49:388
6.3973,-3.8882,-0.0766,9.4057,1.2914,2.4567,-2.5852,-5.4411,-2.624,0.0852,0.4218,-0.4623,-42.75,13.25,12.25,51.36,-7.57,-75.36,72578,2015-10-08 14:06:49:488
6.1483,-3.371,-1.5706,9.3483,1.2083,2.7054,-3.3424,-4.5036,-4.0503,0.4645,0.1875,0.6392,-45.0,7.75,9.25,58.51,-7.08,-73.86,72678,2015-10-08 14:06:49:588
11.0899,-6.5888,-3.3519,9.5198,-1.6402,1.6893,2.3558,-6.1522,-5.2588,-1.6469,-0.5497,3.0637,-44.75,9.5,8.75,60.89,-5.01,-74.44,72778,2015-10-08 14:06:49:688
11.6262,-4.2138,-0.0575,8.1781,-5.3349,0.9095,3.8816,1.8827,-0.7166,-2.4608,0.2621,4.4464,-41.25,17.75,11.75,111.08,32.96,-83.65,72879,2015-10-08 14:06:49:789
15.2271,-3.984,-0.5938,7.0149,-6.8441,-0.3472,8.2122,2.8601,-0.2466,-2.2413,-0.5049,0.6349,-31.5,28.5,17.5,95.07,44.26,-92.83,72979,2015-10-08 14:06:49:889
7.0677,-3.9073,1.0918,7.3982,-6.2802,-1.4129,-0.3305,2.3729,2.5046,-4.0054,2.1454,-0.2471,-24.75,28.75,24.25,81.84,41.43,-99.52,73079,2015-10-08 14:06:49:989
5.5737,-2.7773,1.4748,7.7641,-5.7406,-1.7129,-2.1097,3.1284,2.9749,-1.9942,1.061,0.0788,-28.75,20.25,29.75,86.87,38.19,-101.57,73179,2015-10-08 14:06:50:089
8.6766,-2.7773,-0.1341,7.6464,-6.0147,-1.2352,0.2066,3.3715,1.1011,-1.1036,1.2144,0.9545,-31.0,15.5,30.75,109.66,37.83,-99.18,73278,2015-10-08 14:06:50:188
10.8409,-2.49,-1.4365,7.2958,-6.528,-0.5713,3.4302,3.9615,-0.8652,-0.5625,1.1121,1.0077,-34.5,11.25,28.75,121.14,41.73,-94.48,73378,2015-10-08 14:06:50:288
13.5608,-3.62,-1.4557,7.1756,-6.6832,-0.1253,6.1362,3.8868,-1.1772,0.2493,0.2301,0.5816,-36.5,10.5,26.25,123.5,42.96,-91.0,73478,2015-10-08 14:06:50:388
11.3772,-1.1684,-0.9002,7.5534,-6.2528,0.138,3.8239,5.0844,-1.0382,-0.3558,0.4197,-1.0312,-38.0,13.0,24.0,123.18,42.45,-90.2,73578,2015-10-08 14:06:50:488
10.7452,-4.5394,0.5746,8.687,-4.4901,0.7383,2.0582,-0.0493,-0.1637,2.3138,-0.9481,-1.5468,-39.0,14.0,22.25,105.43,30.4,-85.94,73678,2015-10-08 14:06:50:588
10.8984,-4.5586,-0.4597,9.3413,-2.9341,0.55,1.5571,-1.6245,-1.0097,0.8906,-0.8607,-1.9665,-40.5,10.25,21.25,99.14,24.03,-84.96,73779,2015-10-08 14:06:50:689
9.6151,-4.865,-0.498,9.6903,-1.4724,0.3172,-0.0752,-3.3926,-0.8152,-0.8288,0.4027,-1.86,-41.0,9.0,22.75,83.3,8.64,-88.12,73879,2015-10-08 14:06:50:789
6.8378,-4.865,0.7661,9.77,-0.3526,0.77,-2.9322,-4.5124,-0.0039,-1.1697,0.441,-0.9545,-40.25,3.0,24.25,86.55,2.06,-85.49,73978,2015-10-08 14:06:50:888
5.7652,-4.0414,0.0958,9.7159,-0.7908,1.071,-3.9506,-3.2506,-0.9753,-0.441,-0.049,0.8778,-41.0,-6.0,23.0,105.89,2.69,-83.72,74079,2015-10-08 14:06:50:989
7.7764,-4.6735,-1.1492,9.4239,-2.6323,0.6566,-1.6476,-2.0412,-1.8058,-1.0567,-0.4772,2.5353,-42.25,-9.0,22.0,115.37,7.31,-83.97,74179,2015-10-08 14:06:51:089
14.4227,-6.4739,-0.1532,8.2572,-5.2899,-0.0788,6.1655,-1.184,-0.0744,-0.6988,-1.1995,3.4216,-43.0,-7.25,22.0,143.52,32.64,-90.55,74279,2015-10-08 14:06:51:189
12.3924,-2.0111,-0.0575,6.8646,-6.8548,-1.4352,1.5439,7.2379,1.416,-3.004,2.1454,1.8727,-42.25,2.0,23.25,153.69,42.96,-100.91,74378,2015-10-08 14:06:51:288
11.1666,-2.0686,0.4597,6.6052,-7.0543,-1.667,4.9225,4.9794,2.3306,0.098,-2.4693,0.6626,-38.25,8.75,26.25,143.54,45.78,-101.58,74479,2015-10-08 14:06:51:389
10.5153,-0.8619,1.6281,6.7816,-6.8076,-1.9586,4.3481,5.9625,3.5645,0.848,-0.0597,-1.1803,-38.5,10.75,25.25,148.79,43.96,-106.11,74578,2015-10-08 14:06:51:488
9.596,-4.5777,1.3982,7.9655,-5.6502,-0.8928,1.6305,1.0725,2.291,2.6248,-1.4552,-1.5276,-36.0,12.25,28.75,136.12,41.95,-103.33,74678,2015-10-08 14:06:51:588
7.604,-4.9033,0.7661,8.6902,-4.5418,-0.1482,-1.0862,-0.3615,0.9143,4.1908,-1.551,-1.7108,-34.25,12.25,29.5,111.92,32.88,-94.22,74778,2015-10-08 14:06:51:688
7.853,-6.6272,1.6472,9.1687,-3.4727,0.2118,-1.3158,-3.1544,1.4354,3.7689,-1.4935,-1.0589,-31.75,17.5,29.75,79.4,20.74,-88.68,74879,2015-10-08 14:06:51:789
8.5234,-9.1171,0.4405,9.3201,-3.0142,0.4701,-0.7967,-6.1029,-0.0296,2.7271,-0.9246,-0.9971,-30.75,23.75,26.25,63.72,18.16,-87.36,74978,2015-10-08 14:06:51:888
8.7532,-8.6766,0.747,9.3941,-2.8133,-0.0831,-0.7281,-6.5135,1.4684,-4.5615,0.9864,-1.5233,-30.5,29.0,20.25,47.23,17.0,-88.78,75079,2015-10-08 14:06:51:989
7.8147,-10.2472,1.8962,9.2988,-2.6668,1.6099,-1.5233,-7.6144,0.4672,-0.0021,1.9004,-0.3217,-31.75,31.5,18.75,37.85,15.37,-90.33,75179,2015-10-08 14:06:52:089
9.0214,-3.4668,-1.9345,9.0651,-2.5329,2.7531,-0.0437,-0.9339,-4.6876,0.8565,0.963,-0.7244,-37.25,23.0,20.75,65.16,15.98,-75.56,75279,2015-10-08 14:06:52:189
8.7724,-0.996,0.8236,8.9263,-1.9248,3.5758,0.1055,1.3482,-1.7179,-1.208,1.0333,-1.2804,-40.5,22.75,15.25,60.4,11.32,-68.17,75378,2015-10-08 14:06:52:288
10.2472,-0.1149,5.6503,8.7961,-0.9329,4.2343,1.5766,0.556,1.1181,-0.3771,1.6107,-1.289,-44.0,18.25,9.25,61.11,9.55,-67.32,75479,2015-10-08 14:06:52:389
8.734,0.1149,6.2058,7.6879,0.3685,6.0771,1.1581,-0.1986,0.0518,0.1896,2.0112,-1.3316,-47.5,14.25,4.5,65.23,-2.15,-51.67,75578,2015-10-08 14:06:52:488
7.4508,0.1532,7.5848,6.395,1.1449,7.346,0.9769,-0.2953,0.5284,-0.914,1.3039,-0.522,-49.5,6.75,-3.25,72.59,-6.7,-41.04,75679,2015-10-08 14:06:52:589
5.3247,1.7621,7.6998,5.6339,0.4068,8.0165,0.3649,1.3046,-2.8098,-0.6008,1.0333,0.9609,-48.0,1.5,-11.25,83.91,-2.38,-35.1,75779,2015-10-08 14:06:52:689
6.608,2.7007,8.8873,4.8254,0.2888,8.5325,2.4869,2.5888,-0.0107,-0.6456,1.9132,-0.0937,-46.0,1.5,-16.75,84.41,-1.69,-29.49,75879,2015-10-08 14:06:52:789
3.2178,-3.0454,12.6414,1.9055,-0.1516,9.6185,1.3039,-2.7699,3.0273,0.5944,0.5838,0.2322,-42.0,5.0,-23.0,83.73,1.86,-12.17,75979,2015-10-08 14:06:52:889
3.1029,-0.0958,9.3087,2.1902,0.2489,9.5557,0.9284,-0.3966,-0.2491,-0.8607,-0.1236,-0.3771,-35.0,7.0,-31.75,73.5,-1.45,-12.91,76078,2015-10-08 14:06:52:988
2.0877,-0.3256,7.3933,3.0087,-0.3099,9.3286,-0.9018,-0.6478,-2.0502,-1.6639,-1.0567,-1.1888,-33.5,6.0,-33.75,72.9,-0.65,-13.73,76178,2015-10-08 14:06:53:088
4.4628,-1.3024,6.608,4.4142,-0.9933,8.7005,-0.0472,-0.8454,-1.8818,0.8288,-1.0759,-0.0597,-36.75,6.25,-31.0,83.63,4.96,-20.28,76278,2015-10-08 14:06:53:188
1.4557,0.5171,-2.7964,4.6512,-0.0828,8.6331,-3.0599,0.3936,-11.5007,2.9529,6.0677,-0.0874,-40.75,8.0,-25.0,72.48,0.48,-28.31,76379,2015-10-08 14:06:53:289
0.2873,-0.4405,2.6432,2.0496,1.3902,9.4888,-1.5997,-0.9193,-8.6001,-0.7052,3.5793,0.539,-38.0,0.25,-26.5,81.48,-8.15,-12.19,76479,2015-10-08 14:06:53:389
-1.8004,-0.4214,6.8761,-0.8233,1.697,9.6235,-0.9771,-2.1184,-2.7474,-1.1995,-0.9928,0.2088,-28.5,-3.75,-36.0,87.24,-8.66,0.55,76578,2015-10-08 14:06:53:488
0.1532,0.5746,9.5577,-0.5465,1.9018,9.6049,0.6998,-1.3272,-0.0473,-0.0234,0.0192,-0.0149,-17.25,-4.75,-43.0,81.44,-10.82,3.48,76678,2015-10-08 14:06:53:588
