ACCELEROMETER X (m/s²),ACCELEROMETER Y (m/s²),ACCELEROMETER Z (m/s²),GRAVITY X (m/s²),GRAVITY Y (m/s²),GRAVITY Z (m/s²),LINEAR ACCELERATION X (m/s²),LINEAR ACCELERATION Y (m/s²),LINEAR ACCELERATION Z (m/s²),GYROSCOPE X (rad/s),GYROSCOPE Y (rad/s),GYROSCOPE Z (rad/s),MAGNETIC FIELD X (μT),MAGNETIC FIELD Y (μT),MAGNETIC FIELD Z (μT),ORIENTATION Z (azimuth °),ORIENTATION X (pitch °),ORIENTATION Y (roll °),Time since start in ms ,YYYY-MO-DD HH-MI-SS_SSS,state
0.5938,7.9871,4.6735,0.8899,8.5616,4.6986,-0.0835,-0.7311,-0.0356,-1.0972,-0.0895,0.0959,-1.75,-33,17.5,168.8,-67.03,-14.67,60,2015-10-08 15:48:16:361,0
0.6512,7.2592,6.4356,0.855,7.9978,5.6102,0.6018,-0.268,-0.9519,-0.7052,0.2493,0.0043,0,-32.25,13.75,175.37,-56.41,-9.72,160,2015-10-08 15:48:16:461,0
0.8811,7.0485,6.7995,0.8646,7.9267,5.7088,0.1243,-0.8244,1.1874,0.3388,0.017,0.098,-0.25,-30.5,9.25,176.6,-53.6,-8.12,260,2015-10-08 15:48:16:561,0
1.2067,7.8147,4.7309,1.032,8.2427,5.2119,0.1843,-0.3921,-0.5392,0.6605,-0.196,-0.0234,-2.25,-30.75,11.75,173.9,-55.03,-9.34,360,2015-10-08 15:48:16:661,0
1.245,8.0828,4.3862,1.1682,8.3981,4.9272,0.1725,-0.3536,-0.4836,0.1172,-0.066,0.098,-3,-31.75,13.75,170.12,-58.17,-12.04,460,2015-10-08 15:48:16:761,0
1.4174,7.8338,4.8842,1.2733,8.4159,4.8706,0.1441,-0.582,0.0136,0.0597,-0.0533,0.0085,-4.5,-30.25,16.25,164.46,-58.92,-14.07,560,2015-10-08 15:48:16:861,0
1.3791,8.0062,4.4628,1.3249,8.4829,4.7386,0.0542,-0.4767,-0.2758,0.1875,0.0128,0.0043,-5.25,-31,16.5,163.91,-59.36,-14.94,660,2015-10-08 15:48:16:961,0
1.494,8.0637,4.3479,1.3834,8.5104,4.6722,0.168,-0.4659,-0.3243,0.1278,-0.0639,0.1023,-6.75,-30.5,17,157.11,-60.21,-16.49,760,2015-10-08 15:48:17:061,0
1.5897,8.0445,4.5203,1.4225,8.5415,4.6033,0.129,-0.5353,-0.1213,0.0618,-0.0128,0.0192,-6.25,-30.5,17,158.53,-60.57,-17.17,860,2015-10-08 15:48:17:161,0
1.4365,8.2935,4.2521,1.4787,8.5765,4.5196,0.12,-0.5338,-0.2074,0.0767,0.0597,-0.0128,-4.5,-29.5,17,161.64,-60.79,-17.88,960,2015-10-08 15:48:17:261,0
1.4748,8.0637,4.5777,1.5338,8.5753,4.5035,0.016,-0.5564,0.2019,0.2493,0.0895,0.0937,-5,-30,17,159.43,-60.98,-18.81,1060,2015-10-08 15:48:17:361,0
1.6472,8.102,4.1372,1.5071,8.6411,4.3853,0.2702,-0.5529,-0.1428,0.1683,-0.1342,-0.0533,-7,-31,18,159.82,-61.27,-19.07,1160,2015-10-08 15:48:17:461,0
1.4174,8.2169,4.0223,1.4544,8.7693,4.1417,-0.0371,-0.5524,-0.1194,0.2855,-0.1491,-0.196,-6.25,-31,18,157.14,-62.81,-19.26,1260,2015-10-08 15:48:17:561,0
1.245,8.351,3.8882,1.334,8.9663,3.7411,0.1669,-0.642,0.5535,0.7222,-0.3324,-0.3643,-6.25,-30.5,18.75,155.72,-66.11,-19.62,1360,2015-10-08 15:48:17:661,0
1.3216,8.6383,2.739,1.1844,9.2101,3.1532,0.2953,-0.6958,-0.1856,0.6477,-0.1513,-0.3068,-4.75,-31,19.5,156.22,-69.91,-20.59,1460,2015-10-08 15:48:17:761,0
0.5363,8.983,1.992,0.8909,9.521,2.1744,-0.3545,-0.5379,-0.1825,0.8884,-0.3984,-0.2557,-2.25,-31.25,22,159.77,-74.23,-21.94,1560,2015-10-08 15:48:17:861,0
0.5363,9.232,0.2682,0.6993,9.6974,1.2816,-0.163,-0.4653,-1.0135,0.8416,-0.2621,-0.2216,-1,-32.5,25,156.6,-80.12,-25.81,1660,2015-10-08 15:48:17:961,0
0.7087,9.232,0.2682,0.706,9.7159,1.128,0.0027,-0.4839,-0.8598,-0.2152,0.049,0.0724,-0.25,-32,27,151.62,-82.48,-32.41,1760,2015-10-08 15:48:18:061,0
0.7278,9.0788,1.8387,0.826,9.6463,1.5612,-0.1319,-0.5384,0.2563,-0.5262,0.2493,0.0895,0,-31.5,29,156.23,-79.62,-27.88,1860,2015-10-08 15:48:18:161,0
0.9768,8.9639,2.3176,0.878,9.5973,1.814,0.0793,-0.6331,0.2911,0.017,0.0085,-0.017,0,-30.5,28,158.41,-78.14,-25.83,1960,2015-10-08 15:48:18:261,0
0.7087,9.1554,1.1109,0.8189,9.6224,1.7057,-0.1102,-0.467,-0.5948,-0.0064,-0.0937,-0.0511,-0.75,-31.5,27.25,156.85,-78.88,-25.65,2060,2015-10-08 15:48:18:361,0
0.7661,9.098,1.4557,0.86,9.5988,1.8148,-0.0938,-0.5008,-0.3592,-0.2727,0.0852,0.1214,-0.5,-31,26,159.22,-78.18,-25.35,2160,2015-10-08 15:48:18:461,0
0.8045,9.0405,1.9345,0.9273,9.541,2.0689,-0.1229,-0.5005,-0.1344,-0.2855,0.1598,0.0746,-0.25,-31,26.25,160.63,-76.63,-24.14,2262,2015-10-08 15:48:18:563,0
1.0151,8.849,2.5474,1.0733,9.4195,2.5084,-0.0582,-0.5705,0.039,-0.424,0.0895,0.1704,-1,-30.25,25.5,160.63,-76.63,-24.14,2361,2015-10-08 15:48:18:662,0
1.0726,8.7724,2.9113,1.1437,9.3241,2.8148,-0.0711,-0.5518,0.0966,-0.2514,0.1747,0.1044,-1.25,-31,24.25,160.64,-73.85,-23.17,2460,2015-10-08 15:48:18:761,0
1.2833,8.6766,2.5857,1.1956,9.2676,2.9755,0.0877,-0.591,-0.3897,-0.3068,-0.0511,0.0639,-1.75,-31,23.75,160.15,-71.69,-22.1,2560,2015-10-08 15:48:18:861,0
1.2833,8.6191,3.3902,1.2119,9.1955,3.185,0.0629,-0.5532,0.1129,-0.0724,-0.1193,-0.1129,-3.25,-32.75,23.5,159.89,-70.03,-21.15,2660,2015-10-08 15:48:18:961,0
1.1301,8.7149,2.6815,1.1741,9.1873,3.2227,-0.0767,-0.471,-0.4896,0.0256,-0.081,0.0277,-3,-32.25,21.75,160.27,-69.67,-20.83,2760,2015-10-08 15:48:19:061,0
1.2067,8.6574,2.8347,1.1787,9.1857,3.2256,0.0289,-0.4919,-0.3282,-0.0256,0.3345,0.2152,-3,-31.25,21.5,160.43,-69.5,-20.14,2860,2015-10-08 15:48:19:161,0
1.3216,8.6,3.9456,1.1923,9.1387,3.3515,0.1293,-0.5388,0.5942,0.2237,-0.1832,-0.2067,-2.25,-32.25,21.75,162.67,-68.93,-20.02,2960,2015-10-08 15:48:19:261,0
1.3599,9.3278,1.2258,1.0749,9.2285,3.1385,0.4282,-0.3371,-2.0807,-0.7691,-0.0618,-0.4666,-3.25,-30.5,21,159.93,-70.37,-20.3,3060,2015-10-08 15:48:19:361,0
0.6704,8.3893,3.9648,0.9053,8.883,4.055,-0.2362,-0.4701,-0.1471,-1.061,0.4474,0.1939,-2,-31.5,21.25,166.66,-67.38,-14.43,3160,2015-10-08 15:48:19:461,0
0.6704,7.8338,5.1523,0.7576,8.3281,5.1224,-0.1064,-0.6092,0.2406,-1.1633,0.9886,0.294,-0.25,-31.5,19,170.14,-64.93,-12.59,3260,2015-10-08 15:48:19:561,0
0.5746,7.4124,5.6503,0.604,7.767,5.9565,-0.1251,-0.2396,-0.4977,-0.8309,0.8032,0.4261,1.25,-30.5,16.5,177.02,-58.13,-8.41,3360,2015-10-08 15:48:19:661,0
0.498,6.7995,6.5122,0.4978,7.2,6.6395,0.0199,-0.2888,-0.072,-0.8224,0.4815,0.0405,-0.75,-28.75,13.25,175.89,-48.96,-4.72,3460,2015-10-08 15:48:19:761,0
0.0958,6.11,7.106,0.2878,6.7028,7.1526,-0.192,-0.5928,-0.0466,-0.6264,0.1768,-0.081,-2.25,-29.25,10.25,176.5,-45.84,-3.63,3560,2015-10-08 15:48:19:861,0
0.3448,6.0334,7.4699,0.2525,6.5073,7.3322,0.0923,-0.474,0.1377,0.2067,-0.017,0.115,-1.25,-26.25,12.25,176.96,-43.12,-2.3,3660,2015-10-08 15:48:19:961,0
0.3448,6.4548,6.7421,0.3628,6.8538,7.0046,0.0011,-0.2266,-0.3775,0.5902,-0.2471,0.049,-0.75,-25,12.25,176.69,-43.01,-2.53,3760,2015-10-08 15:48:20:061,0
0.4214,6.6463,6.8187,0.4989,7.152,6.691,0.0377,-0.5551,0.4872,0.7499,-0.441,-0.032,0,-24.5,13.25,178.5,-45.18,-3.18,3860,2015-10-08 15:48:20:161,0
0.5171,7.1635,6.1292,0.7564,7.7006,6.0248,-0.1148,-0.526,-3.0000E-04,1.453,-0.6136,-0.0618,-0.25,-25.75,14.75,176.15,-51.74,-7.16,3960,2015-10-08 15:48:20:261,0
1.1109,8.2744,3.5243,0.9951,8.3642,5.0221,-0.0485,-0.0881,-1.3383,0.4645,-0.1342,0.1449,-1,-28.75,18.25,171.52,-58.53,-11.21,4060,2015-10-08 15:48:20:361,0
0.9002,8.0637,4.616,1.0867,8.4896,4.7872,0.0625,-0.2535,-0.5159,-0.1577,0.066,0.0298,-1.5,-28.5,21.25,169.89,-59.96,-12.79,4160,2015-10-08 15:48:20:461,0
0.9768,7.9296,4.9799,1.0833,8.4793,4.8062,-0.1256,-0.5113,-0.1327,0.3558,-0.4645,-0.0064,-2.25,-28.25,21.5,168.11,-59.84,-12.7,4260,2015-10-08 15:48:20:561,0
1.0726,8.2361,4.0223,1.2682,8.8787,3.9662,-0.1719,-0.5526,-0.1469,1.1249,-0.2578,-0.1683,-2.25,-27,22.25,165.25,-63.11,-16.17,4360,2015-10-08 15:48:20:661,0
1.3024,8.6574,2.8156,1.2654,9.1126,3.3956,0.0285,-0.3845,-0.7609,0.9161,-0.2109,-0.1896,-2.25,-27.75,23.25,165.25,-63.11,-16.17,4460,2015-10-08 15:48:20:761,0
1.3024,8.6574,2.8156,1.2654,9.1126,3.3956,0.0285,-0.3845,-0.7609,0.9161,-0.2109,-0.1896,-2.25,-27.75,23.25,165.25,-63.11,-16.17,4560,2015-10-08 15:48:20:861,0
1.3024,8.6574,2.8156,1.2654,9.1126,3.3956,0.0285,-0.3845,-0.7609,0.9161,-0.2109,-0.1896,-2.25,-27.75,23.25,165.25,-63.11,-16.17,4660,2015-10-08 15:48:20:961,0
1.3216,8.7532,3.6775,1.3489,9.2151,3.0712,-0.1422,-0.2895,0.4722,-0.2791,0.066,-0.0298,1.25,-32.5,27.5,163.72,-70,-23.71,4760,2015-10-08 15:48:21:061,0
1.2641,8.6957,3.0646,1.3055,9.2473,2.9922,-0.0414,-0.5516,0.0724,0.3665,-0.1598,-0.1257,2.5,-32.5,27.25,167.49,-69.63,-23.19,4860,2015-10-08 15:48:21:161,0
0.996,8.9639,1.8579,1.1791,9.382,2.5995,-0.1831,-0.4181,-0.7416,0.3707,-0.0554,-0.2876,7.25,-33.25,26,172.9,-73.08,-24.4,4960,2015-10-08 15:48:21:261,0
0.8811,9.0214,1.7238,1.094,9.4249,2.479,-0.2129,-0.4035,-0.7552,-0.2663,-0.0107,0.032,7.75,-32.75,26.75,174.19,-74.06,-23.96,5060,2015-10-08 15:48:21:361,0
1.0918,8.8298,2.7007,1.0862,9.3742,2.6674,0.0056,-0.5444,0.0332,0.0043,-0.0533,-0.066,9.5,-32.5,27.5,177.51,-73.18,-22.82,5161,2015-10-08 15:48:21:462,0
0.9194,8.9447,2.2218,1.0703,9.3813,2.6488,-0.1509,-0.4366,-0.427,0.0405,0.0575,-0.0192,9,-32.75,26.25,176.58,-72.89,-22.18,5260,2015-10-08 15:48:21:561,0
0.996,8.9064,2.5283,1.0705,9.3739,2.6747,-0.0745,-0.4675,-0.1464,0.0831,-0.0831,-0.0107,7.5,-32.75,25,176.96,-72.87,-21.77,5360,2015-10-08 15:48:21:661,0
1.0151,8.8681,2.375,1.0758,9.3771,2.6613,-0.0597,-0.5055,-0.2031,0.0234,0.0703,-0.0874,7,-33.25,26.25,175.07,-73.01,-21.55,5460,2015-10-08 15:48:21:761,0
1.0151,8.8681,2.4708,1.1103,9.3595,2.7088,-0.0846,-0.4945,-0.1933,-0.0298,0.0213,-0.0533,7.5,-33.75,26.25,176.03,-72.72,-22.37,5560,2015-10-08 15:48:21:861,0
1.0918,8.849,2.6432,1.108,9.3627,2.6986,-0.0163,-0.5137,-0.0554,0.1044,-0.0703,-0.0149,7.25,-34.5,25.5,174.98,-72.63,-21.75,5660,2015-10-08 15:48:21:961,0
0.9385,8.9447,2.2027,1.0878,9.3822,2.6383,-0.1492,-0.4375,-0.4357,-0.0447,-0.0554,0.0874,6.5,-33.75,25.25,173.51,-72.69,-22.32,5760,2015-10-08 15:48:22:061,0
0.9577,8.9256,2.49,1.1267,9.3767,2.6416,-0.169,-0.4511,-0.1516,0.0618,0.1065,0.1108,6.25,-32.75,26.25,172.72,-73.06,-22.67,5860,2015-10-08 15:48:22:161,0
1.0918,8.8873,2.375,1.1885,9.3854,2.583,-0.0967,-0.4981,-0.2079,0.0277,0.0064,-0.1364,4.25,-33,27,167.85,-73.02,-24.34,5960,2015-10-08 15:48:22:261,0
1.1301,8.8873,2.0877,1.2148,9.3871,2.5646,-0.1039,-0.4998,-0.496,-0.115,0.0341,0.0021,2.5,-33,27.5,165.27,-73.23,-25.2,6060,2015-10-08 15:48:22:361,0
1.0726,8.8681,2.624,1.2123,9.3318,2.76,-0.131,-0.4718,-0.1109,-0.0703,0.0895,0.0874,0.5,-30.5,27.75,162.67,-72.48,-24.15,6160,2015-10-08 15:48:22:461,0
1.3791,8.6766,3.2753,1.2941,9.2765,2.9057,0.0586,-0.5908,0.2158,-0.0618,0.0128,0.0107,-0.25,-28.25,27.5,161.29,-71.32,-23.72,6260,2015-10-08 15:48:22:561,0
1.2067,8.7532,2.739,1.2617,9.2874,2.8849,-0.0359,-0.5534,-0.0693,-0.0959,-0.0192,-0.0043,0,-29.5,27.5,161.45,-71.06,-23.99,6373,2015-10-08 15:48:22:674,0
1.245,8.7532,2.624,1.2727,9.2799,2.9042,-0.0277,-0.5267,-0.2802,0.0511,-0.0192,0.032,0.25,-28.75,27,161.74,-71.14,-23.62,6460,2015-10-08 15:48:22:761,0
1.2067,8.7532,2.8539,1.2874,9.2808,2.8949,-0.0808,-0.5276,-0.041,-0.1406,-0.0043,0.0426,-0.5,-28.5,26.75,161.17,-71.13,-24.13,6560,2015-10-08 15:48:22:861,0
1.1684,8.734,2.7007,1.3185,9.2723,2.9081,-0.2267,-0.4425,-0.2074,-0.0128,-0.049,-0.0362,0,-29.5,26,161.32,-71.1,-24.41,6661,2015-10-08 15:48:22:962,0
1.2641,8.6957,3.1029,1.3349,9.2499,2.9712,-0.0708,-0.5542,0.1317,-0.0128,0.0447,-0.0426,1,-29.25,26.5,162.68,-70.73,-24.61,6760,2015-10-08 15:48:23:061,0
1.2258,8.7724,2.7773,1.3522,9.2521,2.9564,-0.1263,-0.4798,-0.1791,0.0128,-0.049,-0.0064,0,-30,25.75,161.64,-70.67,-24.33,6859,2015-10-08 15:48:23:160,0
1.1875,8.734,2.8347,1.3334,9.253,2.9621,-0.1459,-0.519,-0.1274,-0.0724,-0.1129,0.0107,-1,-28.75,26,159.86,-70.66,-24.23,6959,2015-10-08 15:48:23:260,0
1.2258,8.7149,2.8347,1.3342,9.2508,2.9686,-0.1084,-0.5359,-0.1339,-0.0511,0.0682,0.049,-0.75,-29.5,26.5,159.82,-70.62,-24.1,7060,2015-10-08 15:48:23:361,0
1.245,8.7532,2.739,1.3117,9.2541,2.9685,-0.0667,-0.5009,-0.2295,-0.0149,0.0575,-0.0426,-0.5,-29.75,26.75,161.65,-70.64,-24.08,7160,2015-10-08 15:48:23:461,0
1.2641,8.7149,2.8539,1.3194,9.2528,2.969,-0.0936,-0.5188,-0.1534,-0.0043,0.0192,-0.0511,-0.5,-31.75,27,161.81,-70.62,-24.32,7260,2015-10-08 15:48:23:561,0
1.2067,8.734,2.9305,1.2939,9.2623,2.9506,-0.0872,-0.5091,-0.0967,0.0511,0.032,0.0682,0,-30.75,26,162.23,-70.75,-23.76,7360,2015-10-08 15:48:23:661,0
1.2641,8.7149,2.9305,1.295,9.2646,2.943,-0.0309,-0.5497,-0.0125,0.0469,0.0021,-0.066,0,-31.75,26.25,162.21,-70.8,-23.77,7460,2015-10-08 15:48:23:761,0
1.2258,8.7532,2.7581,1.27,9.265,2.9526,-0.0442,-0.5118,-0.1945,0.0703,0.0405,-0.0724,-0.25,-30.5,26.25,162.14,-70.75,-23.65,7560,2015-10-08 15:48:23:861,0
1.1875,8.734,2.873,1.3036,9.256,2.9659,-0.1161,-0.522,-0.0929,0.0021,-0.0597,-0.0085,0.25,-31,25.75,162.38,-70.83,-23.54,7660,2015-10-08 15:48:23:961,0
1.2258,8.734,2.8539,1.2772,9.2634,2.9543,-0.0513,-0.5294,-0.1004,0.1108,0.0575,0.032,1.25,-30.25,25.75,164.1,-70.68,-23.27,7760,2015-10-08 15:48:24:061,0
1.2067,8.7532,2.7198,1.2232,9.2819,2.9191,-0.0165,-0.5287,-0.1993,-0.1129,-0.0554,-0.0128,1,-29.25,26.5,164.06,-71.17,-22.73,7860,2015-10-08 15:48:24:161,0
1.2833,8.6957,2.5283,1.2567,9.2892,2.8814,0.0266,-0.5934,-0.3531,-0.0703,0.081,0.0447,0.5,-30,27,163.54,-71.3,-23.56,7960,2015-10-08 15:48:24:261,0
1.3024,8.7532,2.8156,1.2816,9.2636,2.9518,0.0209,-0.5104,-0.1362,-0.147,0.1001,0.049,0,-31,26.75,162.24,-70.84,-23.47,8060,2015-10-08 15:48:24:361,0
1.3408,8.7149,2.7964,1.2958,9.2536,2.9769,0.0258,-0.5196,-0.238,-0.0298,-0.0149,0.115,1,-32.75,27,164.16,-70.61,-23.48,8160,2015-10-08 15:48:24:461,0
1.245,8.7149,2.8922,1.2966,9.249,2.9909,-0.0899,-0.4766,-0.137,-0.0618,-0.0554,-0.0234,0.75,-31,27.25,163.91,-70.58,-23.44,8260,2015-10-08 15:48:24:561,0
1.245,8.7532,2.9305,1.3382,9.2283,3.0363,-0.1223,-0.4899,0.0494,-0.0767,0.1236,0.1534,0.75,-31,27,163.6,-70.45,-23.68,8360,2015-10-08 15:48:24:661,0
1.3982,8.6383,3.0263,1.3633,9.2047,3.096,0.068,-0.5641,-0.0359,0.0469,0.1534,0.0043,0.75,-31,26.75,163.66,-69.98,-23.9,8460,2015-10-08 15:48:24:761,0
1.3408,8.7149,2.7964,1.3811,9.1954,3.1157,-0.0525,-0.4768,-0.2289,-0.1427,-0.049,0.0341,0.25,-32.5,26.75,165.48,-69.62,-23.83,8560,2015-10-08 15:48:24:861,0
1.3024,8.6957,3.0837,1.391,9.1866,3.1371,-0.0886,-0.4909,-0.0533,0.1236,-0.0724,-0.2003,0.25,-32,26,162.39,-69.63,-23.78,8660,2015-10-08 15:48:24:961,0
1.2641,8.6957,3.0071,1.3725,9.1772,3.1727,-0.1084,-0.4814,-0.1656,-0.0874,0.0426,-0.0469,0.25,-31,27,162.56,-69.36,-23.39,8760,2015-10-08 15:48:25:061,0
1.3791,8.6574,3.1029,1.3499,9.1772,3.1823,0.0292,-0.5198,-0.0794,-0.0916,0.0107,0.0043,0.25,-32.75,26.5,162.82,-69.31,-23.5,8860,2015-10-08 15:48:25:161,0
1.3408,8.6766,3.0071,1.3687,9.1689,3.1982,-0.0489,-0.4697,-0.162,-0.0021,0.0192,-0.0724,-0.25,-33.25,26,163.58,-69.28,-22.74,8960,2015-10-08 15:48:25:261,0
1.3024,8.6957,2.8347,1.3595,9.1811,3.1669,-0.0302,-0.5032,-0.3586,0.1065,0.13,-0.0043,-0.25,-33.5,26.25,163.26,-69.29,-23.18,9060,2015-10-08 15:48:25:361,0
1.2833,8.6957,3.0071,1.3294,9.1802,3.1823,-0.0351,-0.4896,-0.2335,0.1917,-0.1129,0.032,0.75,-32.75,26,165.14,-69.36,-22.75,9160,2015-10-08 15:48:25:461,0
1.2641,8.7149,2.988,1.345,9.1824,3.1693,-0.0283,-0.488,-0.2139,-0.0341,0.0746,-0.0192,0.5,-32.25,26.5,164.73,-69.49,-23.1,9259,2015-10-08 15:48:25:560,0
1.3216,8.6766,2.9113,1.3871,9.185,3.1437,-0.0768,-0.5069,-0.2018,0.0234,0.0511,-0.0383,0.5,-31.5,26.5,164.09,-69.53,-23.41,9360,2015-10-08 15:48:25:661,0
1.3408,8.6957,3.0071,1.4113,9.1786,3.1514,-0.136,-0.4643,-0.2731,0.0639,0.0746,-0.0746,0,-31.75,26.5,162.1,-69.52,-23.97,9460,2015-10-08 15:48:25:761,0
1.3024,8.6957,2.8539,1.4231,9.1776,3.1492,-0.1398,-0.4818,-0.2953,0.0746,-0.0128,-0.0298,0,-32.75,26.5,162.18,-69.38,-24.12,9560,2015-10-08 15:48:25:861,0
1.3024,8.6957,2.873,1.419,9.1856,3.1275,-0.0782,-0.4899,-0.1779,0.0469,-0.1172,-0.0575,0.5,-31.75,27,163.52,-69.5,-24.4,9660,2015-10-08 15:48:25:961,0
1.3216,8.6957,2.8922,1.4419,9.1852,3.1182,-0.1203,-0.4895,-0.226,0.0192,0.0277,0.0533,0.25,-30.5,26.5,161.48,-69.53,-24.56,9760,2015-10-08 15:48:26:061,0
1.3408,8.6574,2.9113,1.4641,9.1798,3.1238,-0.1233,-0.5224,-0.2124,0.0511,0.0469,0.0128,0,-32.25,26.5,161.38,-69.51,-25.17,9860,2015-10-08 15:48:26:161,0
1.3216,8.6957,2.873,1.435,9.1802,3.1361,-0.1517,-0.4845,-0.2631,0.1172,-0.0937,-0.0383,0.25,-32,26.5,161.88,-69.36,-24.54,9960,2015-10-08 15:48:26:261,0
1.3216,8.6766,2.988,1.4695,9.1627,3.1712,-0.1479,-0.4861,-0.1832,-0.0852,0.0341,0.1811,0,-33.5,26.25,162.27,-69.25,-24.56,10149,2015-10-08 15:48:26:450,0
1.3216,8.6766,2.988,1.4695,9.1627,3.1712,-0.1479,-0.4861,-0.1832,-0.0852,0.0341,0.1811,0,-33.5,26.25,162.27,-69.25,-24.56,10159,2015-10-08 15:48:26:460,0
1.3599,8.6574,2.988,1.4939,9.1565,3.1777,-0.134,-0.499,-0.1897,-0.0618,-0.0149,-0.0234,0.5,-32,26,163.29,-69.02,-25.18,10260,2015-10-08 15:48:26:561,0
1.3408,8.6766,3.0263,1.5173,9.1391,3.2164,-0.1091,-0.52,-0.09,0.0128,-0.1427,-0.0724,-0.75,-32.25,26.25,159.97,-68.72,-25.43,10360,2015-10-08 15:48:26:661,0
1.3024,8.6766,3.0454,1.4776,9.1479,3.21,-0.1903,-0.4852,-0.1151,-0.0298,-0.0149,0.1001,0.25,-32,26.5,161.83,-68.88,-24.72,10460,2015-10-08 15:48:26:761,0
1.4174,8.6191,3.0837,1.4963,9.1455,3.2079,-0.0789,-0.5264,-0.1242,0.0128,-0.0213,-0.1023,0,-31.75,26,161.85,-68.84,-25.01,10559,2015-10-08 15:48:26:860,0
1.3216,8.6766,3.0263,1.4519,9.1341,3.2606,-0.1418,-0.478,-0.1678,0.0405,0.0511,0.0362,-2.25,-32,26,160.65,-68.64,-24.51,10660,2015-10-08 15:48:26:961,0
1.3791,8.6191,3.0263,1.4286,9.1394,3.256,-0.0496,-0.5202,-0.2297,-0.0362,0.0469,0.0341,-0.75,-33.5,26,161.41,-68.74,-23.69,10760,2015-10-08 15:48:27:061,0
1.3599,8.6383,3.0646,1.4493,9.1225,3.2939,-0.0894,-0.4842,-0.2293,0.0085,0.0682,0.0511,-0.75,-32.25,26.25,160.96,-68.56,-24.09,10860,2015-10-08 15:48:27:161,0
1.3408,8.6574,3.0646,1.4308,9.1247,3.2958,-0.0941,-0.448,-0.2874,-0.0064,-0.0575,0.0234,-0.25,-32.25,26.5,162.89,-68.57,-23.36,10960,2015-10-08 15:48:27:261,0
1.3982,8.5808,3.1795,1.4072,9.1266,3.3008,-0.0363,-0.5088,-0.1524,0.0746,-0.0405,0.0682,0.25,-32.25,26.5,163.09,-68.54,-23.09,11060,2015-10-08 15:48:27:361,0
1.3599,8.6383,3.0837,1.4063,9.1369,3.2725,-0.0464,-0.4986,-0.1888,0.0341,0.0383,-0.0383,0.75,-32.5,26.5,164.46,-68.61,-23.31,11160,2015-10-08 15:48:27:461,0
1.3408,8.6383,3.0454,1.3623,9.152,3.2488,-0.0216,-0.5138,-0.2034,-0.0426,-0.1704,-0.0511,0,-32.25,27,163.24,-68.75,-22.84,11260,2015-10-08 15:48:27:561,0
1.3791,8.6383,3.0263,1.3599,9.1631,3.2186,0.0191,-0.5248,-0.1923,-0.0064,0.0447,-0.0788,-1,-31.75,26.75,163.27,-68.95,-22.75,11360,2015-10-08 15:48:27:661,0
1.3599,8.6383,3.0071,1.3492,9.1688,3.2067,0.0107,-0.5305,-0.1996,-0.0213,-0.0149,0.0021,0,-32.75,26.75,163.39,-69.24,-22.73,11460,2015-10-08 15:48:27:761,0
1.3982,8.6383,3.1029,1.3374,9.1746,3.195,0.0608,-0.5363,-0.0922,-0.1321,-0.1087,-0.0341,0.25,-31.75,25.75,163.41,-69.22,-22.77,11560,2015-10-08 15:48:27:861,0
1.3408,8.6574,3.0263,1.3243,9.1764,3.1955,0.0133,-0.5198,-0.1655,0.0831,0.0064,-0.0874,0.25,-33.25,25.75,163.57,-69.28,-22.75,11660,2015-10-08 15:48:27:961,0
1.3599,8.6574,3.0837,1.3284,9.1831,3.1743,0.0315,-0.5257,-0.0906,-0.0128,0.0575,-0.0064,1.25,-33.5,25.75,165.19,-69.36,-22.69,11760,2015-10-08 15:48:28:061,0
1.3599,8.6574,3.0454,1.3253,9.1863,3.1665,0.0346,-0.5288,-0.121,0.0149,0.0043,-0.0746,0.25,-33,26.25,163.65,-69.43,-22.6,11860,2015-10-08 15:48:28:161,0
1.3216,8.6574,3.0071,1.3679,9.1866,3.1474,-0.0463,-0.5291,-0.1403,-0.0724,-0.0618,0.017,0.25,-34.25,26.25,163.23,-69.45,-23.42,11960,2015-10-08 15:48:28:261,0
1.3599,8.6574,3.122,1.4024,9.1692,3.1827,-0.0425,-0.5118,-0.0606,0.0256,-0.0107,-0.0107,0.75,-33.75,26,164.66,-69.24,-23.66,12060,2015-10-08 15:48:28:361,0
1.3408,8.6574,3.1412,1.3823,9.1626,3.2104,-0.0821,-0.506,-0.1725,-0.1023,0.1747,-0.0511,0.75,-34.5,27,164.28,-69.19,-23.86,12160,2015-10-08 15:48:28:461,0
1.3408,8.6766,3.0071,1.3634,9.1644,3.2132,-0.0143,-0.5086,-0.1669,-0.0064,0.0383,0.0874,1,-35.5,26.5,164.86,-69.2,-23.24,12260,2015-10-08 15:48:28:561,0
1.3216,8.6766,2.988,1.3407,9.1677,3.2134,-0.0191,-0.4911,-0.2254,0.098,0.0383,-0.0107,0.5,-34.5,26.25,165.13,-69.11,-22.88,12360,2015-10-08 15:48:28:661,0
1.3408,8.6574,3.0646,1.3599,9.1617,3.2224,-0.0192,-0.5043,-0.1578,-0.0256,0.0724,0.0639,1.25,-34.25,26.75,165.1,-69.12,-22.73,12460,2015-10-08 15:48:28:761,0
1.3408,8.6191,3.0454,1.3579,9.1517,3.2516,-0.0171,-0.5326,-0.2062,0.032,0.0618,0.0724,0.25,-35.5,26.75,163.66,-69.07,-22.84,12560,2015-10-08 15:48:28:861,0
1.3599,8.6574,3.0454,1.3603,9.1557,3.2393,0.0117,-0.5193,-0.1472,0.0767,-0.1001,0.0277,0.75,-34,26.75,165.07,-68.88,-22.82,12660,2015-10-08 15:48:28:961,0
1.3408,8.6383,3.0071,1.3752,9.1623,3.2143,-0.0345,-0.524,-0.2071,0.0618,0.081,0.081,1,-33.5,26.5,164.72,-68.98,-23.08,12760,2015-10-08 15:48:29:061,0
1.3599,8.6383,3.0646,1.3967,9.1545,3.2271,-0.0751,-0.5162,-0.1242,-0.0916,0.0064,-0.1023,0.25,-34.75,26.75,163.31,-69.04,-23.33,12860,2015-10-08 15:48:29:161,0
1.3408,8.6383,3.0454,1.3831,9.1573,3.2251,-0.0232,-0.519,-0.1605,-0.0895,0.049,-0.1065,1.5,-35.25,26.75,164.64,-68.99,-23.4,12960,2015-10-08 15:48:29:261,0
1.3791,8.6191,3.1029,1.3861,9.1629,3.2079,-0.0645,-0.5246,-0.2008,0.0383,0.0021,-0.0469,1,-35.25,26.5,164.78,-69.12,-23.37,13060,2015-10-08 15:48:29:361,0
1.3216,8.6383,3.0071,1.3849,9.1602,3.2161,-0.025,-0.5219,-0.1899,0.0149,-0.081,0.0575,1,-35.5,26,165.09,-69.08,-23.3,13160,2015-10-08 15:48:29:461,0
1.3599,8.6574,3.0454,1.4012,9.1492,3.2403,-0.0402,-0.4946,-0.1873,-0.0085,0.0703,0.0383,1.75,-35.5,25.75,164.75,-69.07,-23.44,13260,2015-10-08 15:48:29:561,0
1.3408,8.6574,2.988,1.396,9.1437,3.258,-0.0606,-0.4833,-0.2761,0.0128,0.0234,0.0043,1.75,-34.25,26.75,166.25,-68.82,-23.31,13360,2015-10-08 15:48:29:661,0
1.3408,8.6383,3.0454,1.437,9.1342,3.2669,-0.0963,-0.4959,-0.2789,0.0256,-0.0469,0.0107,0.25,-35.25,26,163.3,-68.66,-23.74,13460,2015-10-08 15:48:29:761,0
1.3599,8.6383,3.0454,1.4696,9.1238,3.2812,-0.1311,-0.4858,-0.1959,-0.0469,0.017,-0.1023,0,-35.5,26,163.07,-68.49,-24.13,13560,2015-10-08 15:48:29:861,0
1.3982,8.6383,3.0646,1.465,9.1208,3.2918,-0.0976,-0.4697,-0.2129,-0.0298,0.0426,0.0597,-0.5,-35.75,26,163.13,-68.55,-24.02,13660,2015-10-08 15:48:29:961,0
1.3599,8.6191,2.988,1.4538,9.1173,3.3062,-0.0979,-0.4806,-0.1975,-0.0043,-0.1001,0.081,-0.5,-34.5,26.5,162.81,-68.29,-23.99,13760,2015-10-08 15:48:30:061,0
1.3599,8.6574,3.0454,1.4571,9.1198,3.2979,-0.1355,-0.4815,-0.1758,-0.1044,-0.0469,0.0021,-0.25,-35,26.75,163.17,-68.41,-23.69,13860,2015-10-08 15:48:30:161,0
1.3791,8.6383,3.1029,1.4539,9.1174,3.306,-0.0678,-0.5173,-0.1873,-0.0064,0.1236,-0.032,0,-34,26.5,162.82,-68.35,-23.97,13960,2015-10-08 15:48:30:261,0
1.3216,8.6191,3.1029,1.4658,9.1121,3.3155,-0.1042,-0.4877,-0.2085,0.0043,-0.0192,0.0277,-0.5,-34.25,27,162.91,-68.31,-23.85,14060,2015-10-08 15:48:30:361,0
1.3408,8.6,3.122,1.5022,9.1084,3.3093,-0.1477,-0.4747,-0.2574,-0.0234,0.0746,-0.0107,0,-34,26.25,162.95,-68.32,-24.1,14160,2015-10-08 15:48:30:461,0
1.3408,8.6766,2.988,1.4829,9.1036,3.3311,-0.1422,-0.427,-0.3431,-0.0234,-0.0298,-0.1747,-0.75,-35.25,27.25,161.49,-68.17,-24,14260,2015-10-08 15:48:30:561,0
1.3216,8.6383,3.0071,1.5012,9.1014,3.329,-0.1796,-0.4631,-0.3218,0.0874,0.0043,0.0788,-0.25,-33.5,26.5,162.47,-68.14,-24.27,14360,2015-10-08 15:48:30:661,0
1.3216,8.6574,3.0454,1.5321,9.0982,3.3236,-0.2105,-0.4407,-0.2782,0.1236,0.0341,0.0043,0.5,-34,26.25,164.08,-68.09,-24.75,14460,2015-10-08 15:48:30:761,0
1.3599,8.6191,3.0263,1.5062,9.0976,3.3369,-0.1333,-0.4609,-0.2653,-0.066,0.1257,-0.0383,0.75,-33.75,26.25,164.24,-68.13,-24.52,14560,2015-10-08 15:48:30:861,0
1.3408,8.6383,3.0837,1.4995,9.0997,3.3342,-0.1574,-0.4625,-0.2481,-0.049,-0.0746,-0.0085,-0.25,-34,25.25,163.14,-68.11,-24.22,14660,2015-10-08 15:48:30:961,0
1.3408,8.6383,3.0837,1.4749,9.0991,3.3469,-0.1342,-0.4608,-0.2632,0.1087,0.0597,0.049,0.25,-33.5,26,163.04,-68.1,-23.78,14760,2015-10-08 15:48:31:061,0
1.3408,8.6383,3.0646,1.4892,9.1041,3.3268,-0.1001,-0.4694,-0.2571,0.0213,0.0341,-0.098,0,-34,26.5,162.72,-68.17,-24.15,14860,2015-10-08 15:48:31:161,0
1.3408,8.6191,3.0454,1.4663,9.1133,3.3119,-0.1035,-0.473,-0.2157,0.0469,0.0469,0.049,0.25,-33.75,26,163.1,-68.33,-23.88,14960,2015-10-08 15:48:31:261,0
1.3599,8.6383,3.0837,1.4689,9.1073,3.3273,-0.1036,-0.4737,-0.2329,0.0362,0.0234,0.0149,-0.25,-34,26,163.1,-68.33,-23.88,15060,2015-10-08 15:48:31:361,0
1.3599,8.6574,3.0454,1.4837,9.1015,3.3365,-0.1137,-0.4388,-0.3098,-0.0682,-0.0767,-0.066,-1,-34.5,25.75,163.38,-68.12,-23.78,15160,2015-10-08 15:48:31:461,0
1.3791,8.6191,3.1412,1.4312,9.111,3.3334,-0.0551,-0.488,-0.2017,0.0767,0.0575,-0.032,-0.5,-34.5,26,163.34,-68.19,-23.58,15260,2015-10-08 15:48:31:561,0
1.3982,8.6191,3.2178,1.4476,9.1123,3.3229,-0.0302,-0.5123,-0.1434,-0.1108,0.1172,-0.032,-0.75,-33.75,26.25,161.83,-68.29,-23.24,15360,2015-10-08 15:48:31:661,0
1.3599,8.6383,3.0837,1.4412,9.1071,3.3397,-0.0778,-0.4674,-0.2422,0.0234,-0.0746,-0.0107,0,-34.25,26.25,163.5,-68.23,-23.34,15460,2015-10-08 15:48:31:761,0
1.3408,8.6383,3.0263,1.4029,9.1068,3.3568,-0.0272,-0.4836,-0.2252,0.066,0.0724,0.0533,-0.25,-34,25.25,164.03,-68.14,-22.92,15561,2015-10-08 15:48:31:862,0
1.3408,8.6383,3.1412,1.419,9.1021,3.3629,-0.0541,-0.4847,-0.1425,-0.0682,-0.0043,-0.066,-1,-34.75,25.75,162.44,-68.23,-22.89,15660,2015-10-08 15:48:31:961,0
1.4557,8.5808,3.1412,1.4274,9.088,3.3972,0.0297,-0.511,-0.2463,-0.0213,0.0213,0.1364,-0.25,-32.5,25.75,163.68,-68.15,-22.88,15760,2015-10-08 15:48:32:061,0
1.4365,8.6,2.988,1.4538,9.1035,3.3441,-0.0157,-0.5066,-0.3484,0.0128,-0.0788,-0.0192,0,-33.25,26,163.35,-67.99,-23.38,15860,2015-10-08 15:48:32:161,0
1.1875,8.6957,2.9113,1.4382,9.1145,3.3208,-0.2126,-0.4221,-0.1787,-0.0085,0.0256,-0.0724,0.25,-33.5,26,163.51,-68.37,-23.07,15960,2015-10-08 15:48:32:261,0
1.3791,8.6383,3.2178,1.4484,9.0963,3.3661,-0.0684,-0.4592,-0.1453,-0.0277,-0.0298,0.066,0,-34,26.25,163.45,-68.17,-23.42,16060,2015-10-08 15:48:32:361,0
1.3408,8.5808,3.0454,1.4454,9.0814,3.4074,-0.1029,-0.5042,-0.3529,-0.115,0.0511,0.0447,0,-32,26,163.46,-67.93,-22.99,16160,2015-10-08 15:48:32:461,0
1.4557,8.5617,3.2561,1.4618,9.0467,3.4914,0.0153,-0.4847,-0.2371,0.0426,0.0107,-0.0085,-0.25,-32.75,25.5,163.74,-67.63,-22.92,16260,2015-10-08 15:48:32:561,0
1.3024,8.5808,3.1029,1.4514,9.0538,3.4776,-0.166,-0.4402,-0.342,0.1555,0.1491,0.0383,-1.25,-33.25,26.25,162.58,-67.27,-22.43,16360,2015-10-08 15:48:32:661,0
1.3791,8.6191,3.1987,1.4439,9.072,3.433,-0.0104,-0.5306,-0.3065,0.0554,0.1214,-0.0383,-2,-31.25,25.75,160.29,-67.49,-22.81,16460,2015-10-08 15:48:32:761,0
1.494,8.5617,3.2561,1.4483,9.096,3.3668,-0.0272,-0.5194,-0.1009,0.0874,-0.1342,0.0405,0,-32.25,26.5,163.12,-67.93,-23.18,16560,2015-10-08 15:48:32:861,0
1.3791,8.5808,3.0837,1.4205,9.1298,3.2861,-0.0414,-0.549,-0.2024,0.0746,-0.081,-0.0682,-1.25,-32.75,26.75,161.53,-68.34,-23.4,16660,2015-10-08 15:48:32:961,0
1.3408,8.6383,3.0646,1.3986,9.1355,3.2797,-0.0578,-0.4973,-0.2151,-0.0405,0.1364,0.0043,-1,-33.25,26.5,161.58,-68.6,-23.25,16760,2015-10-08 15:48:33:061,0
1.3408,8.6,3.122,1.3769,9.1472,3.2561,-0.0362,-0.5473,-0.1341,0.1214,-0.0043,-0.0639,0.25,-32,27,163.21,-68.78,-22.87,16859,2015-10-08 15:48:33:160,0
1.3216,8.5808,3.1412,1.367,9.1492,3.2548,-0.0454,-0.5684,-0.1136,0.0298,-0.0724,0.0277,0,-32.75,27,164.67,-69.05,-22.73,16960,2015-10-08 15:48:33:261,0
1.3024,8.6574,3.1603,1.3905,9.1482,3.2476,-0.0881,-0.4908,-0.0872,0.0107,-0.0043,-0.0298,-0.5,-32.75,25.75,163.56,-68.85,-22.87,17060,2015-10-08 15:48:33:361,0
1.3024,8.6191,3.1412,1.432,9.131,3.2778,-0.1104,-0.5119,-0.1366,0.0107,0.0064,0.0362,-0.25,-33.75,26.75,163.13,-68.89,-23.18,17160,2015-10-08 15:48:33:461,0
1.3791,8.6,3.122,1.448,9.1076,3.3353,-0.0881,-0.5077,-0.2133,-0.0298,0.032,0.1364,0,-34.25,26,163.25,-68.61,-23.6,17260,2015-10-08 15:48:33:561,0
1.3791,8.6383,3.2561,1.4651,9.1006,3.3472,-0.104,-0.5144,-0.1252,-0.1641,0.0107,-0.0107,0.25,-34.25,26,163.28,-68.18,-23.67,17360,2015-10-08 15:48:33:661,0
1.4365,8.5808,3.2944,1.4736,9.101,3.3424,-0.0506,-0.5023,-0.085,0.1023,0.0682,0.0149,0,-33.25,26,163.16,-68.05,-23.63,17460,2015-10-08 15:48:33:761,0
1.3599,8.6191,3.0837,1.4744,9.1147,3.3042,-0.1145,-0.4956,-0.2205,0.0767,0.1108,-0.0383,0,-33.75,26,162.98,-68.35,-24.05,17560,2015-10-08 15:48:33:861,0
1.3599,8.6383,3.1412,1.4664,9.1094,3.3225,-0.0873,-0.4903,-0.258,-0.0618,0.1065,-0.081,-1.25,-32.75,26.5,161.24,-68.26,-23.81,17660,2015-10-08 15:48:33:961,0
1.3791,8.6,3.1795,1.4793,9.1046,3.3299,-0.0811,-0.4663,-0.2078,0.0511,0.0021,-0.017,-0.75,-32.75,26.25,162.86,-68.22,-23.76,17760,2015-10-08 15:48:34:061,0
1.3599,8.6383,3.0646,1.4575,9.107,3.3331,-0.0884,-0.4706,-0.3056,-0.0107,-0.032,-0.0128,0.25,-34.75,26.25,163.35,-68.17,-23.82,17860,2015-10-08 15:48:34:161,0
1.3599,8.6191,3.1029,1.4335,9.108,3.3406,-0.0736,-0.4889,-0.2377,-0.0362,0.0298,-0.0362,0,-33.25,26.25,163.47,-68.25,-23.39,17960,2015-10-08 15:48:34:261,0
1.3982,8.6383,3.2944,1.4598,9.0982,3.3558,-0.0616,-0.46,-0.0614,0.0043,-0.0788,0.0426,0,-33.25,26.25,163.22,-68.24,-23.26,18060,2015-10-08 15:48:34:361,0
1.4365,8.5808,3.237,1.4687,9.1046,3.3345,-0.0322,-0.5238,-0.0975,-0.0107,0.0277,0.0575,-0.5,-33.25,26.25,161.79,-68.12,-23.59,18160,2015-10-08 15:48:34:461,0
1.3599,8.5425,3.1795,1.461,9.1052,3.3364,-0.1011,-0.5627,-0.1569,-0.0341,0.0703,-0.0149,-1,-34,26.75,161.64,-68.11,-23.55,18260,2015-10-08 15:48:34:561,0
1.3982,8.6191,3.1412,1.4673,9.0945,3.3627,-0.0031,-0.5209,-0.0908,0.1321,0.0937,0.0937,-0.75,-33.75,26.75,161.64,-68.03,-23.57,18360,2015-10-08 15:48:34:661,0
1.3982,8.5808,3.1603,1.4744,9.1081,3.3226,-0.0539,-0.5056,-0.1897,0.0128,0.0533,-0.0575,-0.25,-34,26,163.08,-68.24,-23.93,18460,2015-10-08 15:48:34:761,0
1.4748,8.5808,3.122,1.4333,9.1026,3.3554,0.0415,-0.5218,-0.2525,0.0746,-0.0533,0.0234,0.25,-32.75,26.25,163.5,-68.16,-23.13,18560,2015-10-08 15:48:34:861,0
1.3599,8.6191,3.122,1.4474,9.1125,3.3224,-0.0492,-0.5316,-0.2387,-0.0511,0.0021,-0.066,-0.75,-32.25,26.25,161.41,-68.31,-23.54,18660,2015-10-08 15:48:34:961,0
1.3791,8.6,3.1987,1.4038,9.1019,3.3697,-0.0247,-0.5019,-0.171,-0.0597,0.0682,0.1236,0,-34,26.25,164.03,-68.15,-22.62,18760,2015-10-08 15:48:35:061,0
1.3408,8.5808,3.237,1.4666,9.0994,3.3496,-0.1258,-0.5186,-0.1127,0.1129,-0.1129,0.0405,-0.75,-34,27,161.63,-68.01,-23.6,18860,2015-10-08 15:48:35:161,0
1.4174,8.5808,3.1795,1.4462,9.1022,3.3511,-0.0441,-0.5565,-0.1051,-0.1044,0.0064,-0.049,0,-34.25,26.5,161.59,-68.2,-23.6,18960,2015-10-08 15:48:35:261,0
1.3599,8.6574,3.1987,1.4695,9.0994,3.3483,-0.1096,-0.442,-0.1497,-0.0085,-0.0107,0.017,0.25,-34.5,26.5,163.06,-68.11,-23.7,19060,2015-10-08 15:48:35:361,0
1.3599,8.6,3.1987,1.52,9.0943,3.3398,-0.1174,-0.455,-0.1267,-0.0597,-0.0043,0.0874,-0.25,-33.75,25.75,162.99,-68.02,-24.12,19160,2015-10-08 15:48:35:461,0
1.4365,8.5617,3.3327,1.53,9.09,3.3469,-0.1138,-0.5281,-0.0335,-0.0064,-0.0085,-0.0575,-1,-32,26.25,160.82,-67.92,-24.47,19260,2015-10-08 15:48:35:561,0
1.3982,8.5425,3.3519,1.5328,9.085,3.3592,-0.1241,-0.5278,-0.1341,-0.0554,-0.0597,-0.0234,-1.5,-34,25.75,161.24,-68.03,-24.39,19360,2015-10-08 15:48:35:661,0
1.3982,8.6,3.237,1.5175,9.0907,3.3506,-0.1151,-0.5026,-0.1841,-0.0362,0.0746,0.0043,-1,-33.5,25.25,159.56,-67.88,-24.61,19460,2015-10-08 15:48:35:761,0
1.4365,8.5808,3.1987,1.5196,9.0905,3.3501,-0.0853,-0.5494,-0.0701,0.066,-0.0383,0.0085,-0.5,-33.5,26.25,162.63,-67.97,-24.4,19560,2015-10-08 15:48:35:861,0
1.3982,8.5617,3.3327,1.5118,9.0958,3.3393,-0.0453,-0.5316,-0.0098,0.0256,0.1342,0.1278,-2,-34.5,25.75,159.7,-68.05,-24.36,19660,2015-10-08 15:48:35:961,0
1.4174,8.5425,3.2944,1.5248,9.0767,3.385,-0.1881,-0.4383,-0.2232,-0.0447,0.0107,-0.0447,-1.75,-33.25,25.75,159.63,-67.75,-24.25,19760,2015-10-08 15:48:36:061,0
1.4365,8.5617,3.1603,1.5074,9.0811,3.381,-0.0821,-0.4986,-0.1712,0.0341,-0.0597,-0.0618,-1.75,-32.75,26,159.64,-67.83,-24.21,19860,2015-10-08 15:48:36:161,0
1.3599,8.5425,3.1603,1.4856,9.066,3.4308,-0.0874,-0.5235,-0.2896,-0.017,-0.0298,0.1001,-0.75,-33,26,161.83,-67.59,-23.41,19960,2015-10-08 15:48:36:261,0
1.3791,8.6,3.1795,1.4999,9.0587,3.4439,-0.1208,-0.4588,-0.2835,-0.0021,0.0916,0.0192,-1,-33.25,26,161.76,-67.48,-23.53,20060,2015-10-08 15:48:36:361,0
1.4557,8.5808,3.2178,1.4364,9.0745,3.4294,0.0139,-0.4894,-0.2206,-0.0597,-0.0192,0.049,-1.25,-33.25,25.75,162.29,-67.72,-22.73,20162,2015-10-08 15:48:36:463,0
1.3982,8.5808,3.1987,1.4372,9.0681,3.4459,-0.0524,-0.4895,-0.2358,-0.0107,0.1065,-0.0575,-1.5,-34,26,162.59,-67.65,-22.58,20260,2015-10-08 15:48:36:561,0
1.3982,8.5808,3.2178,1.4445,9.0744,3.4262,-0.0309,-0.4774,-0.2181,0.017,0.0405,0.0234,-1.75,-34,26.75,160.78,-67.6,-22.77,20360,2015-10-08 15:48:36:661,0
1.4365,8.5425,3.3327,1.4397,9.0819,3.4083,-0.0023,-0.5151,-0.2236,-0.1427,0.0021,-0.0234,-1.25,-33.75,26.5,162.11,-67.9,-22.95,20460,2015-10-08 15:48:36:761,0
1.3599,8.6,3.1987,1.4226,9.0858,3.4051,-0.0597,-0.5063,-0.0894,-0.0192,-0.0554,-0.049,-1.25,-32.5,26.25,162.04,-67.95,-22.77,20560,2015-10-08 15:48:36:861,0
1.494,8.5234,3.3136,1.4447,9.0708,3.4358,0.0302,-0.5282,-0.1222,-0.0085,0.0447,0.1321,-1,-32.25,25.75,162.13,-67.81,-22.67,20660,2015-10-08 15:48:36:961,0
1.4365,8.5042,3.4477,1.4647,9.0608,3.4535,-0.0282,-0.5566,-0.0059,0.0383,0.049,0.0362,-1.25,-32.25,25.5,162.06,-67.66,-22.81,20760,2015-10-08 15:48:37:061,0
1.3599,8.6,3.1603,1.5067,9.0777,3.3906,-0.1468,-0.4777,-0.2303,0.0085,0.0405,-0.0213,-1,-32,26,161.35,-67.69,-23.79,20860,2015-10-08 15:48:37:161,0
1.2833,8.6383,3.3327,1.4842,9.0724,3.4146,-0.2009,-0.4341,-0.0819,0.0937,-0.0426,0.0426,-0.5,-31.5,25.25,163.08,-67.64,-23.65,20960,2015-10-08 15:48:37:261,0
1.4365,8.5617,3.2944,1.523,9.0611,3.4275,-0.0865,-0.4994,-0.133,0.0874,0.0788,0.0043,-1,-32,25.5,161.35,-67.69,-23.78,21060,2015-10-08 15:48:37:361,0
1.3599,8.6,3.1987,1.5256,9.0724,3.3963,-0.1657,-0.4724,-0.1977,0.0554,0.0341,-0.0511,-1,-32.5,25.25,161.32,-67.72,-24.09,21160,2015-10-08 15:48:37:461,0
1.3599,8.5617,3.237,1.5045,9.0755,3.3974,-0.1446,-0.5138,-0.1605,0.0469,0.0405,-0.0298,-1.5,-33.75,25.25,161.69,-67.72,-24.11,21260,2015-10-08 15:48:37:561,0
1.3982,8.5617,3.2753,1.5028,9.0584,3.4435,-0.1046,-0.4967,-0.1682,0.0575,0.0021,-0.1044,-1.75,-33,25.5,160.03,-67.57,-23.74,21360,2015-10-08 15:48:37:661,0
1.3791,8.6191,3.122,1.4787,9.064,3.4392,-0.1188,-0.464,-0.1639,-0.1513,0.1364,0.0043,-2,-32.25,25.25,160.1,-67.61,-23.53,21460,2015-10-08 15:48:37:761,0
1.3982,8.5042,3.3519,1.4924,9.0399,3.4963,-0.0164,-0.4867,-0.3226,-0.049,-0.0916,0.0703,-1.5,-33,25.75,162.22,-67.32,-22.92,21560,2015-10-08 15:48:37:861,0
1.4748,8.5234,3.2561,1.528,9.0378,3.4863,-0.1136,-0.4765,-0.4003,-0.0256,-0.0362,-0.0852,-1,-33,26.25,161.85,-67.13,-23.5,21660,2015-10-08 15:48:37:961,0
1.2067,8.6191,3.1029,1.5142,9.044,3.4763,-0.136,-0.5024,-0.179,0.0192,0.017,-0.0298,-1.75,-34,25.75,160.34,-67.07,-23.44,21759,2015-10-08 15:48:38:060,0
1.3982,8.5808,3.2944,1.5114,9.0407,3.486,-0.0766,-0.4429,-0.166,0.0597,-0.0554,-0.0064,-1.5,-34.25,25.5,161.98,-67.3,-23.54,21860,2015-10-08 15:48:38:161,0
1.4174,8.5425,3.371,1.4828,9.0298,3.5262,-0.0022,-0.4482,-0.2554,-0.0447,0.0426,-0.0767,-0.5,-34.25,25.75,163.88,-67.12,-23.07,21960,2015-10-08 15:48:38:261,0
1.4365,8.5617,3.371,1.4865,9.0283,3.5285,-0.0386,-0.4642,-0.1987,-0.0405,-0.032,0.0639,-1,-32.5,26.5,162.01,-67.03,-22.79,22060,2015-10-08 15:48:38:361,0
1.3982,8.5617,3.2178,1.5017,9.0122,3.563,-0.0843,-0.4506,-0.2303,0.1321,-0.0234,0.0511,-1,-33.25,26.5,162.03,-66.84,-23.08,22160,2015-10-08 15:48:38:461,0
1.3791,8.5617,3.2178,1.4773,9.0249,3.541,-0.0639,-0.4614,-0.2114,-0.081,-0.0192,0.0831,-0.75,-32,25.75,162.29,-66.97,-22.65,22260,2015-10-08 15:48:38:561,0
1.4174,8.5617,3.2178,1.4817,9.0357,3.5115,-0.0834,-0.4549,-0.3128,-0.0064,-0.032,0.0298,-1.25,-32.5,25.5,162.17,-66.94,-22.83,22360,2015-10-08 15:48:38:661,0
1.4365,8.5808,3.2753,1.4419,9.0341,3.5322,-0.0094,-0.4922,-0.2729,-0.0043,0.0383,-0.0234,-1.5,-35,25.5,162.71,-67.09,-22.55,22460,2015-10-08 15:48:38:761,0
1.4365,8.5617,3.371,1.4629,9.03,3.5342,-0.0346,-0.467,-0.163,-0.0277,0.0959,-0.0192,-2,-33.75,25.25,161.32,-67.06,-22.54,22560,2015-10-08 15:48:38:861,0
1.4557,8.5425,3.2753,1.4971,9.0345,3.5082,-0.0606,-0.4919,-0.1563,0.1001,0.0426,-0.0447,-2,-33.25,25.25,162.48,-67.1,-22.62,22660,2015-10-08 15:48:38:961,0
1.4174,8.5234,3.3327,1.4991,9.0269,3.5268,-0.0817,-0.5035,-0.1941,-0.032,0.0298,0.0511,-2.25,-30.5,25.75,160.22,-67.14,-23.01,22760,2015-10-08 15:48:39:061,0
1.4365,8.5425,3.2753,1.4807,9.0308,3.5247,-0.0442,-0.4691,-0.2686,-0.0021,0.0618,-0.0831,-1,-32,26,162.07,-67.02,-22.95,22860,2015-10-08 15:48:39:161,0
1.3791,8.5617,3.1987,1.4417,9.0379,3.5226,-0.0626,-0.4762,-0.3239,0.1214,-0.115,-0.1023,-1.25,-31.5,25.5,162.54,-67.09,-22.54,22960,2015-10-08 15:48:39:261,0
1.4365,8.5042,3.3519,1.4057,9.0485,3.5097,0.0308,-0.5443,-0.1579,-0.115,0.0064,-0.115,-1.25,-32,25.25,162.67,-67.38,-22.25,23060,2015-10-08 15:48:39:361,0
1.4365,8.5617,3.3136,1.3865,9.0488,3.5167,0.05,-0.4871,-0.2031,-0.0405,0.0767,0.0895,-1.5,-33,26,163.19,-67.32,-21.56,23160,2015-10-08 15:48:39:461,0
1.4174,8.5617,3.3327,1.3643,9.053,3.5146,0.072,-0.4933,-0.2342,-0.0341,-0.0362,-0.0234,-1.75,-32.75,25.75,161.58,-67.34,-21.62,23259,2015-10-08 15:48:39:560,0
1.4174,8.5617,3.2753,1.3851,9.0532,3.506,0.0343,-0.4904,-0.177,-0.0234,-0.0362,0.0724,-2.5,-32.75,26,161.86,-67.39,-21.2,23359,2015-10-08 15:48:39:660,0
1.4174,8.5617,3.3902,1.3937,9.0521,3.5055,0.0368,-0.5112,-0.1277,-0.0724,0.0085,0.1321,-1.25,-33.75,26,161.29,-67.39,-21.74,23459,2015-10-08 15:48:39:760,0
1.3982,8.5617,3.1795,1.3944,9.0553,3.4968,0.0039,-0.4937,-0.3173,0.0021,-0.0533,-0.0788,-1.5,-31.75,26.5,162.7,-67.43,-21.74,23559,2015-10-08 15:48:39:860,0
1.3791,8.5808,3.1987,1.4105,9.0511,3.5012,-0.0314,-0.4703,-0.3026,0.0746,0.0021,0.049,-0.5,-33,26.25,164.47,-67.36,-21.94,23660,2015-10-08 15:48:39:961,0
1.4557,8.5808,3.2753,1.4478,9.062,3.4574,0.0078,-0.4812,-0.1821,0.0383,0.0405,0.0639,-1.75,-33.5,26,160.87,-67.51,-22.58,23760,2015-10-08 15:48:40:061,0
1.4557,8.5617,3.1795,1.4841,9.0493,3.4754,-0.0456,-0.4861,-0.09,-0.0447,-0.0298,0.1236,-3.25,-31.75,25.75,158.73,-67.33,-23.12,23860,2015-10-08 15:48:40:161,0
1.3216,8.5617,3.2944,1.4719,9.0477,3.4848,-0.1141,-0.5251,-0.1108,0.0511,-0.0085,-0.1896,-2.75,-31,25.75,158.67,-67.31,-22.9,23960,2015-10-08 15:48:40:261,0
1.5897,8.6191,3.371,1.4642,9.0509,3.4795,0.1256,-0.4318,-0.1085,-0.0064,0.017,-0.0298,-1.5,-31.75,25.75,161.68,-67.41,-23.13,24060,2015-10-08 15:48:40:361,0
1.2258,8.6,3.2178,1.4595,9.05,3.4838,-0.1379,-0.5267,-0.1319,-0.0597,-0.0554,0.0639,-3,-30.5,24.75,160.34,-67.38,-22.96,24160,2015-10-08 15:48:40:461,0
1.3216,8.5617,3.2753,1.4748,9.0421,3.498,-0.1915,-0.4421,-0.1844,-0.081,0.1108,0.0234,-2.5,-31.75,25,160.71,-67.2,-22.79,24260,2015-10-08 15:48:40:561,0
1.494,8.6191,3.2561,1.4965,9.036,3.5045,0.0741,-0.5318,-0.3633,0.049,0.0639,-0.0533,-3.25,-32.25,25.25,158.86,-67.13,-23.12,24360,2015-10-08 15:48:40:661,0
1.4365,8.5234,3.2178,1.5156,9.0374,3.4925,-0.0796,-0.5215,-0.2552,0.1747,-0.0192,-0.0107,-2.25,-31.75,24.75,160.22,-66.97,-23.55,24460,2015-10-08 15:48:40:761,0
1.3791,8.5425,3.237,1.5006,9.0462,3.4763,-0.1231,-0.5009,-0.2459,0.0043,-0.0724,0.0192,-1.75,-32.25,25.25,161.87,-67.16,-23.46,24560,2015-10-08 15:48:40:861,0
1.3791,8.5808,3.237,1.495,9.0487,3.4722,-0.1195,-0.4464,-0.2205,0.0426,0.0341,-0.0256,-1.75,-31,25.25,161.92,-67.29,-23.35,24660,2015-10-08 15:48:40:961,0
1.4174,8.5234,3.2753,1.5035,9.0522,3.4595,-0.0478,-0.4905,-0.1843,-0.0107,-0.0895,-0.0469,-1.5,-32.25,25.75,159.98,-67.33,-23.3,24760,2015-10-08 15:48:41:061,0
1.4365,8.5425,3.237,1.4688,9.0583,3.4583,-0.0323,-0.5158,-0.2214,-0.1065,-0.0256,0.0618,-1.75,-31.25,25.5,160.15,-67.47,-23.01,24860,2015-10-08 15:48:41:161,0
1.3599,8.5617,3.2753,1.4692,9.0395,3.5069,-0.1093,-0.4779,-0.2317,-0.1598,0.032,0.0149,-1.5,-32.5,25.25,162.21,-67.32,-22.93,24960,2015-10-08 15:48:41:261,0
1.4557,8.5042,3.2561,1.4748,9.0371,3.5109,-0.0191,-0.5329,-0.2547,-0.0959,0.0277,0.1129,-2,-31.5,25,162.56,-67.19,-22.73,25060,2015-10-08 15:48:41:361,0
1.3024,8.5808,3.3327,1.4679,9.0476,3.4867,-0.1654,-0.4668,-0.1539,-0.032,-0.1406,0.0575,-1.5,-32.25,25.75,160.72,-67.15,-22.79,25160,2015-10-08 15:48:41:461,0
1.4365,8.5234,3.1795,1.4803,9.0492,3.4772,-0.0438,-0.5258,-0.2977,-0.1193,-0.1662,0.1214,-1.25,-30.75,26.25,162.02,-67.49,-22.64,25260,2015-10-08 15:48:41:561,0
1.3599,8.5617,3.1987,1.4596,9.0417,3.5055,-0.0471,-0.5155,-0.2545,0.0405,0.0192,-0.0554,-1.5,-31.25,25.75,161.74,-67.33,-23.06,25360,2015-10-08 15:48:41:661,0
1.3791,8.6,3.2561,1.4549,9.0374,3.5184,-0.0981,-0.4558,-0.2631,-0.0128,-0.0575,-0.0639,-2,-31.5,25.75,160.55,-67.05,-22.58,25460,2015-10-08 15:48:41:761,0
1.5131,8.5234,3.2944,1.4837,9.0307,3.5235,0.0294,-0.5073,-0.2291,0.0447,0.0277,0.032,-1.5,-33,26.25,160.81,-67.16,-22.47,25560,2015-10-08 15:48:41:861,0
1.3791,8.5617,3.3136,1.4772,9.0333,3.5195,-0.1173,-0.4908,-0.1868,0.0234,-0.1108,-0.2024,-2.5,-32.75,26.25,162.33,-67.05,-22.84,25660,2015-10-08 15:48:41:961,0
1.4174,8.5425,3.2944,1.4851,9.0253,3.5367,-0.0678,-0.4828,-0.2423,-0.0618,0.0703,0.0447,-2.25,-32,26.25,160.42,-67.05,-23.04,25760,2015-10-08 15:48:42:061,0
1.3599,8.5617,3.3136,1.4854,9.0181,3.5549,-0.1108,-0.511,-0.2852,-0.1108,-0.0703,-0.0618,-0.5,-33.75,26,164.11,-66.88,-22.8,25860,2015-10-08 15:48:42:161,0
1.3599,8.5042,3.122,1.4881,9.0037,3.5902,-0.1282,-0.4995,-0.4681,0.1449,-0.1044,0.0895,-0.25,-33.25,26,164.23,-66.76,-22.42,25960,2015-10-08 15:48:42:261,0
1.3599,8.5808,3.237,1.5058,9.0084,3.5709,-0.1651,-0.4276,-0.5063,-0.0426,-0.1129,-0.0618,-0.25,-33,26,163.99,-66.66,-22.78,26060,2015-10-08 15:48:42:361,0
1.4748,8.5425,3.2944,1.5044,9.0177,3.548,-0.0487,-0.4752,-0.3302,0.0618,-0.0383,-0.017,-0.25,-33.75,25.75,164.18,-66.74,-22.72,26160,2015-10-08 15:48:42:461,0
1.4174,8.4851,3.3327,1.522,9.0155,3.5461,-0.1047,-0.5113,-0.1942,-0.017,0.0256,0.0298,-0.5,-32.5,25.75,163.58,-66.79,-23.08,26260,2015-10-08 15:48:42:561,0
1.4174,8.5425,3.2944,1.472,9.0317,3.5259,0.0251,-0.5354,-0.297,0.1129,0.1236,-0.1811,-1,-33.25,25.5,162.35,-66.94,-22.84,26360,2015-10-08 15:48:42:661,0
1.3599,8.5425,3.3327,1.4181,9.0465,3.5101,-0.0582,-0.504,-0.1773,0.0149,0.0639,0.0128,-0.75,-32.25,25.5,162.7,-67.3,-21.99,26460,2015-10-08 15:48:42:761,0
1.3982,8.5234,3.2944,1.3969,9.0505,3.5083,0.0013,-0.5271,-0.2139,-0.0426,0.0192,-0.0043,-1.75,-33,25.75,161.5,-67.33,-21.73,26560,2015-10-08 15:48:42:861,0
1.3599,8.5808,3.1987,1.3959,9.049,3.5126,-0.0272,-0.5026,-0.2431,0.0107,-0.0107,-0.017,-1.25,-31,25.25,162.8,-67.3,-21.86,26660,2015-10-08 15:48:42:961,0
1.3408,8.5617,3.2178,1.3838,9.0575,3.4952,-0.0633,-0.4583,-0.1985,-0.0128,0.1513,-0.066,-1,-32.25,25.5,162.73,-67.43,-21.92,26760,2015-10-08 15:48:43:061,0
1.3982,8.5425,3.371,1.406,9.0543,3.4946,-0.0077,-0.5118,-0.1236,0.032,-0.1129,0.0469,-0.5,-33.25,26.25,164.66,-67.47,-21.65,26860,2015-10-08 15:48:43:161,0
1.3791,8.6,3.2753,1.4086,9.0514,3.5012,-0.0296,-0.4514,-0.2259,-0.0533,-0.1001,0.0213,-0.75,-32.5,26.25,162.76,-67.3,-21.92,26960,2015-10-08 15:48:43:261,0
1.4557,8.5425,3.1795,1.423,9.0473,3.5059,0.0326,-0.5048,-0.3264,-0.0021,-0.1087,-0.0192,-0.25,-31.5,26.5,164.29,-67.33,-21.97,27060,2015-10-08 15:48:43:361,0
1.3791,8.5425,3.3136,1.4292,9.0376,3.5285,-0.0502,-0.495,-0.2149,-0.0085,-0.0064,0.0234,-1,-32,26,162.69,-67.16,-22.05,27160,2015-10-08 15:48:43:461,0
1.4748,8.5425,3.3519,1.4703,9.0267,3.5394,0.0046,-0.4842,-0.1875,-0.0341,-0.0639,0.0874,-1,-33,25.75,162.54,-66.99,-22.56,27260,2015-10-08 15:48:43:561,0
1.3216,8.5234,3.2178,1.446,9.0342,3.5302,-0.1244,-0.5109,-0.3124,0.0107,-0.0767,0.0618,-0.5,-32.5,25.75,164.07,-67.03,-22.35,27360,2015-10-08 15:48:43:661,0
1.4748,8.5425,3.3327,1.4767,9.0235,3.5448,-0.0143,-0.4808,-0.2648,-0.0554,-0.049,0.0639,-0.75,-32.25,25.25,162.45,-66.95,-22.67,27460,2015-10-08 15:48:43:761,0
1.4365,8.6,3.4477,1.5088,9.0273,3.5215,-0.0166,-0.5442,-0.1256,0.1534,0.0767,-0.0405,-1.75,-33,25.25,160.87,-66.99,-22.92,27560,2015-10-08 15:48:43:861,0
1.4557,8.5425,3.3136,1.492,9.04,3.496,-0.091,-0.4799,-0.1031,0.0277,-0.0192,-0.0447,-0.25,-32.5,25,163.72,-67.19,-23.11,27660,2015-10-08 15:48:43:961,0
1.3599,8.5808,3.1795,1.4718,9.0631,3.4445,-0.1512,-0.4988,-0.1183,-0.0554,0.0724,-0.049,-1.5,-33.25,25.5,162.03,-67.54,-23.14,27760,2015-10-08 15:48:44:061,0
1.3791,8.5617,3.1603,1.4783,9.0599,3.4502,-0.0993,-0.4982,-0.2899,0.0149,0.0426,-0.0533,-0.75,-33.75,25.25,162.36,-67.47,-23.21,27860,2015-10-08 15:48:44:161,0
1.5131,8.5042,3.2944,1.4883,9.0407,3.4959,0.0248,-0.5365,-0.2014,-0.017,-0.0383,0.0575,-0.25,-32.5,25.25,163.76,-67.32,-22.95,27963,2015-10-08 15:48:44:264,0
1.3216,8.6,3.237,1.4586,9.0494,3.4858,-0.137,-0.4495,-0.2488,-0.0597,-0.1023,0.017,-0.5,-33.5,24.75,164.02,-67.26,-22.92,28060,2015-10-08 15:48:44:361,0
1.3982,8.5425,3.3902,1.485,9.0361,3.509,-0.0868,-0.4936,-0.1188,-0.1257,0.0192,0.066,-0.5,-33.5,24.5,163.99,-67.19,-22.98,28160,2015-10-08 15:48:44:461,0
1.3982,8.5425,3.3519,1.5061,9.0221,3.536,-0.1079,-0.4796,-0.1842,-0.0895,0.0192,0.0341,-1,-33,24.75,164.03,-66.98,-22.72,28260,2015-10-08 15:48:44:561,0
1.4748,8.5234,3.4093,1.5277,9.0012,3.5797,-0.118,-0.5065,-0.1515,-0.1406,0.0746,0.0447,-1,-33.25,24.25,162.53,-66.81,-23.15,28360,2015-10-08 15:48:44:661,0
1.5706,8.5234,3.5434,1.5432,8.9823,3.6204,0.0281,-0.4578,-0.0801,0.0064,-0.098,-0.1193,-0.25,-33.75,24,164.47,-66.34,-23.09,28460,2015-10-08 15:48:44:761,0
1.4174,8.5425,3.4285,1.5361,8.9999,3.5796,-0.2145,-0.4765,-0.2277,0.032,0.1214,-0.0341,0,-33.5,24.75,163.92,-66.6,-23.23,28560,2015-10-08 15:48:44:861,0
1.4174,8.5042,3.4285,1.5244,9.0204,3.5325,-0.1837,-0.4779,-0.0657,0.1619,-0.0298,-0.0426,-0.25,-32,24.5,163.36,-66.88,-23.7,28660,2015-10-08 15:48:44:961,0
1.4174,8.5234,3.3136,1.5385,9.0373,3.4829,-0.0828,-0.5331,-0.0927,0.0405,0.1001,0.0597,0,-32.25,23.5,163.46,-67.15,-23.83,28760,2015-10-08 15:48:45:061,0
1.4748,8.4467,3.5626,1.5208,9.0323,3.5037,-0.046,-0.5855,0.0589,0.1641,0.0874,0.0426,0.25,-33.25,25,163.67,-67.19,-23.78,28860,2015-10-08 15:48:45:161,0
1.5131,8.5042,3.5434,1.4841,9.0644,3.4357,0.0291,-0.5602,0.1077,0.0767,-0.0533,-0.0597,-0.5,-32.5,25.25,162.22,-67.47,-23.42,28960,2015-10-08 15:48:45:261,0
1.3982,8.5617,3.2178,1.4893,9.0767,3.401,-0.0911,-0.4958,-0.164,0.0128,-0.0618,-0.0213,-0.25,-34.25,25.25,163.71,-67.74,-23.49,29060,2015-10-08 15:48:45:361,0
1.3791,8.5617,3.2561,1.4644,9.0848,3.3901,-0.0661,-0.5423,-0.1723,-0.0724,-0.1065,-0.0511,-0.25,-33.75,25.75,163.55,-67.88,-23.36,29160,2015-10-08 15:48:45:461,0
1.3599,8.5617,3.2561,1.4854,9.0739,3.41,-0.1412,-0.531,-0.1566,0.0895,0.1129,0.0895,-0.75,-34.25,25,162.09,-67.71,-23.54,29260,2015-10-08 15:48:45:561,0
1.3599,8.5234,3.1603,1.5203,9.0733,3.3961,-0.1369,-0.4922,-0.181,-0.017,0.1023,-0.0128,-0.5,-34.25,25.5,163.05,-67.7,-24.12,29360,2015-10-08 15:48:45:661,0
1.494,8.4659,3.5626,1.6193,9.0193,3.4929,-0.1253,-0.5534,0.0696,-0.0724,-0.0128,0.0831,0.5,-33.5,24.75,161.11,-67.38,-24.48,29460,2015-10-08 15:48:45:761,0
1.4365,8.5042,3.5051,1.5949,9.0183,3.5067,-0.1584,-0.5141,-0.0015,0.0426,-0.0767,0.0383,-0.75,-33.5,25,163,-66.92,-24.73,29560,2015-10-08 15:48:45:861,0
1.4557,8.4851,3.4668,1.6026,9.0194,3.5003,-0.1469,-0.5344,-0.0335,-0.032,0.1129,0.0575,-1.5,-34,24.5,161.74,-66.89,-24.29,29662,2015-10-08 15:48:45:963,0
1.4557,8.5425,3.4477,1.6139,9.015,3.5066,-0.147,-0.5276,-0.0612,-0.0469,0.0511,-0.0916,-0.75,-33.75,24.75,163.35,-66.89,-24.6,29760,2015-10-08 15:48:46:061,0
1.494,8.4659,3.4668,1.6218,8.9946,3.555,-0.1278,-0.5287,-0.0882,0.0234,0.115,-0.0192,-0.25,-32.75,24.75,162.85,-66.82,-24.71,29859,2015-10-08 15:48:46:160,0
1.4748,8.4851,3.4477,1.618,8.9967,3.5513,-0.1432,-0.5117,-0.1036,-0.0341,0.0405,0.0149,-0.75,-33,25,161.51,-66.55,-24.43,29960,2015-10-08 15:48:46:261,0
1.4748,8.4851,3.4477,1.6114,8.9877,3.5771,-0.1366,-0.5026,-0.1869,0.017,0.0107,-0.0447,0.5,-33,24.5,164.75,-66.45,-24.34,30060,2015-10-08 15:48:46:361,0
1.5131,8.4467,3.4093,1.6207,8.9846,3.5806,-0.1099,-0.4994,-0.1705,0.0213,0.1087,-0.1044,0,-33.5,24.25,161.87,-66.42,-24.25,30159,2015-10-08 15:48:46:460,0
1.4557,8.4659,3.4477,1.6032,8.9827,3.5933,-0.169,-0.4805,-0.1779,-0.0107,0.032,0.1001,0,-32.25,24.5,162.99,-66.41,-24.33,30260,2015-10-08 15:48:46:561,0
1.494,8.4851,3.4668,1.5874,8.9716,3.6278,-0.1014,-0.4915,-0.1451,0.0341,0.0533,-0.066,-1.5,-30.75,25.25,161.4,-66.34,-24.04,30359,2015-10-08 15:48:46:660,0
1.5131,8.4851,3.4093,1.5734,8.9681,3.6426,-0.0602,-0.483,-0.2333,0.1427,-0.1129,0.0192,-1.5,-31,24.5,161.92,-66.18,-23.63,30460,2015-10-08 15:48:46:761,0
1.4748,8.4851,3.4668,1.5474,8.9771,3.6315,-0.0423,-0.4896,-0.2057,0.0618,0.0852,0.0341,-1.5,-32,24,160.3,-66.13,-23.36,30560,2015-10-08 15:48:46:861,0
1.494,8.4467,3.4285,1.5871,8.9665,3.6405,-0.0663,-0.5143,-0.1712,-0.0277,0.0788,0.066,-1.5,-33.25,24.25,161.11,-66.26,-23.08,30660,2015-10-08 15:48:46:961,0
1.4557,8.4659,3.3902,1.6042,8.9489,3.6761,-0.1384,-0.4862,-0.2825,0.1129,0.0767,-0.0511,-0.25,-31.5,24.5,163.62,-65.88,-23.29,30760,2015-10-08 15:48:47:061,0
1.494,8.4659,3.3902,1.6337,8.9445,3.6739,-0.1374,-0.4752,-0.2931,0.1044,0.0746,0.049,-1.25,-31.75,24.25,163.72,-65.9,-23.48,30860,2015-10-08 15:48:47:161,0
1.5323,8.5234,3.4093,1.6238,8.9551,3.6524,-0.0905,-0.4317,-0.2435,-0.0107,-0.0639,-0.017,-0.75,-32.25,24,163.6,-65.79,-23.97,30960,2015-10-08 15:48:47:261,0
1.3982,8.5234,3.3136,1.6076,8.9513,3.6688,-0.286,-0.4471,-0.202,0.0597,0.0298,0.017,-1.25,-33.5,24.25,162.3,-65.91,-23.75,31060,2015-10-08 15:48:47:361,0
1.4557,8.5234,3.3327,1.5644,8.9707,3.6399,-0.147,-0.4474,-0.4221,-0.0639,0.0256,0.0298,-1.25,-33.75,25.25,162.52,-66,-23.39,31160,2015-10-08 15:48:47:461,0
1.494,8.4659,3.5626,1.5544,8.9709,3.6439,-0.1857,-0.4496,-0.3208,0.0639,0.115,0.0831,-1.5,-33,24.25,162.58,-66.17,-23.26,31260,2015-10-08 15:48:47:561,0
1.6089,8.4084,3.6009,1.5556,8.97,3.6456,0.0098,-0.5619,-0.0417,-0.0383,0.0021,0.0021,-0.75,-32.5,24.5,160.9,-66.17,-23.1,31360,2015-10-08 15:48:47:661,0
1.3982,8.4851,3.5051,1.5726,8.9785,3.6173,-0.18,-0.4908,-0.1162,0.0639,0.0107,0.0682,-0.5,-32.5,25.25,163.7,-66.2,-23.37,31460,2015-10-08 15:48:47:761,0
1.5514,8.5042,3.4668,1.5384,8.9832,3.6203,0.0105,-0.4789,-0.1524,-0.0107,0.032,-0.0362,-1.25,-31.5,25.25,161.97,-66.3,-23.24,31560,2015-10-08 15:48:47:861,0
1.3408,8.5042,3.3327,1.5219,8.992,3.6052,-0.1856,-0.4841,-0.28,-0.0959,0.0277,0.0639,-0.75,-31.25,25.5,161.99,-66.42,-22.92,31660,2015-10-08 15:48:47:961,0
1.5131,8.4851,3.4477,1.5248,8.9826,3.6275,-0.0164,-0.4993,-0.1734,-0.0724,0.0107,-0.0597,-0.5,-31.5,25.25,163.7,-66.4,-23.06,31760,2015-10-08 15:48:48:061,0
1.3599,8.5425,3.4477,1.5446,8.9983,3.5798,-0.1655,-0.475,-0.2279,-0.0362,-0.0746,-0.0383,-1.25,-33.25,25,162.31,-66.63,-23.25,31860,2015-10-08 15:48:48:161,0
1.494,8.4851,3.3519,1.5354,9.0005,3.5783,-0.0387,-0.5162,-0.2064,0.0149,0.0469,-0.0234,-1.25,-33.25,25,162.31,-66.56,-23.26,31960,2015-10-08 15:48:48:261,0
1.4174,8.5234,3.4093,1.5259,9.0036,3.5746,-0.1085,-0.4802,-0.1653,0.0383,0.0043,-0.1044,-1.5,-32.5,25,162.14,-66.58,-23.21,32060,2015-10-08 15:48:48:361,0
1.4174,8.4851,3.5051,1.5246,8.9923,3.6034,-0.1072,-0.5073,-0.0983,-0.0383,-0.0085,-0.0746,-0.25,-33,25,162.15,-66.58,-23.2,32160,2015-10-08 15:48:48:461,0
1.4557,8.4851,3.3902,1.5397,8.9813,3.6243,-0.0841,-0.4963,-0.2341,0.0298,-0.0852,0.0533,0,-33.25,25,164.21,-66.46,-22.83,32260,2015-10-08 15:48:48:561,0
1.4748,8.4851,3.4285,1.5502,8.9794,3.6247,-0.0754,-0.4943,-0.1962,-0.0021,0.0192,-0.1491,-0.75,-33.5,25.25,162.27,-66.31,-23.38,32360,2015-10-08 15:48:48:661,0
1.5131,8.4851,3.4477,1.5797,8.9713,3.6319,-0.0665,-0.4863,-0.1842,-0.049,0.0746,0.0682,-0.25,-32.5,25.25,162.19,-66.27,-23.23,32460,2015-10-08 15:48:48:761,0
1.4174,8.4851,3.4285,1.5645,8.9795,3.6182,-0.1471,-0.4944,-0.1897,-0.0383,0.0511,-0.066,-1,-32.5,25.25,161.81,-66.24,-23.48,32560,2015-10-08 15:48:48:861,0
1.4748,8.5042,3.3902,1.5368,8.9948,3.592,-0.0535,-0.5113,-0.2398,0.0021,0.0234,-0.0937,-1,-32.5,25.25,162.19,-66.52,-23.16,32660,2015-10-08 15:48:48:961,0
1.3599,8.5042,3.4668,1.5104,8.9971,3.5975,-0.1505,-0.4929,-0.1307,0.0511,-0.049,0.0383,-1.75,-31.75,25.25,160.84,-66.56,-22.78,32760,2015-10-08 15:48:49:061,0
1.4174,8.5042,3.4285,1.5536,9.0052,3.5586,-0.1362,-0.501,-0.1301,-0.0383,-0.017,0.0341,-1.25,-33.75,24.5,160.5,-66.63,-23.25,32860,2015-10-08 15:48:49:161,0
1.494,8.4851,3.4093,1.5814,8.9942,3.5739,-0.1066,-0.5092,-0.2221,-0.1065,-0.0043,-0.0064,-2,-33.25,25,160.32,-66.59,-23.83,32960,2015-10-08 15:48:49:261,0
1.3791,8.5234,3.4093,1.5737,8.9886,3.5915,-0.2521,-0.561,-0.0673,-0.0362,-0.049,0.0085,-0.5,-31.25,24.75,163.27,-66.43,-23.66,33060,2015-10-08 15:48:49:361,0
1.4365,8.5042,3.371,1.5641,8.9907,3.5903,-0.1276,-0.4865,-0.2193,-0.13,0.0021,0.0085,-1.5,-31.75,24.75,161.92,-66.46,-23.57,33160,2015-10-08 15:48:49:461,0
1.3982,8.5425,3.5243,1.5736,8.9728,3.6309,-0.252,-0.4686,-0.1449,0.0767,0.0213,0.049,-0.25,-31.25,24.5,163.47,-66.2,-23.43,33260,2015-10-08 15:48:49:561,0
1.5514,8.4851,3.371,1.5554,8.9721,3.6404,-0.004,-0.487,-0.2694,-0.0724,0.0128,-0.0064,-0.5,-32.75,24.75,163.87,-66.21,-23.13,33360,2015-10-08 15:48:49:661,0
1.3599,8.5425,3.2944,1.5609,8.9748,3.6315,-0.1244,-0.4897,-0.1263,-0.0107,0.0128,-0.1001,0,-33,24.75,163.95,-66.23,-23.26,33460,2015-10-08 15:48:49:761,0
1.4748,8.5042,3.3327,1.5539,8.991,3.5942,-0.0791,-0.4868,-0.2615,-0.0085,-0.017,0.0533,0,-32.5,24.5,163.95,-66.23,-23.26,33560,2015-10-08 15:48:49:861,0
1.3791,8.5042,3.4093,1.5409,8.9901,3.6019,-0.181,-0.4668,-0.0967,-0.1641,-0.115,0.0447,0,-32.75,24.25,163.65,-66.47,-23.38,33660,2015-10-08 15:48:49:961,0
1.4557,8.4851,3.3519,1.5629,8.9822,3.6121,-0.0377,-0.4944,-0.0535,-0.0618,0.0767,-0.0533,0,-32.25,24.5,163.83,-66.31,-23.16,33760,2015-10-08 15:48:50:061,0
1.4365,8.4851,3.3902,1.5591,8.9811,3.6166,-0.1751,-0.4625,-0.1209,0.1193,0.0469,-0.032,-0.25,-32.75,24.25,164.16,-66.36,-23.28,33860,2015-10-08 15:48:50:161,0
1.5323,8.5042,3.4477,1.5346,9.0085,3.5585,-0.05,-0.5458,-0.1451,0.0107,0.0064,-0.0256,0,-32.5,24.25,163.89,-66.63,-23.33,33960,2015-10-08 15:48:50:261,0
1.3982,8.5617,3.3902,1.5479,8.9965,3.5828,-0.1034,-0.5742,-0.2213,-0.1257,-0.0959,0.0511,0,-33,24.75,163.82,-66.72,-23.33,34060,2015-10-08 15:48:50:361,0
1.4557,8.5425,3.1412,1.5518,9.0113,3.5438,-0.0409,-0.5265,-0.2178,0.0107,0.0937,-0.1108,0,-32,25,163.68,-66.65,-23.3,34160,2015-10-08 15:48:50:461,0
1.4174,8.4851,3.4093,1.5439,9.0069,3.5585,-0.1275,-0.5222,-0.1478,0.017,0.0895,0.049,-1.5,-32.5,24.5,161.9,-66.73,-23.52,34260,2015-10-08 15:48:50:561,0
1.4748,8.4467,3.5817,1.5339,8.9879,3.6104,-0.0981,-0.519,0.1939,-0.1896,-0.0277,0.0426,-1.25,-32.75,24.75,162.4,-66.58,-23.13,34360,2015-10-08 15:48:50:661,0
1.5131,8.4851,3.2561,1.5639,8.9807,3.6154,-0.0508,-0.4957,-0.3593,-0.0746,0.1087,-0.0128,-0.75,-33.5,25,162.34,-66.44,-23.24,34460,2015-10-08 15:48:50:761,0
1.3408,8.5808,2.8539,1.5521,8.9819,3.6176,-0.2113,-0.4011,-0.7638,-0.0511,-0.0554,-0.1214,-1,-33.5,25,162.45,-66.05,-23.2,34560,2015-10-08 15:48:50:861,0
1.3024,8.5808,3.0071,1.525,8.9909,3.6067,-0.0697,-0.4821,-0.3426,0.017,0.0405,-0.032,-1.25,-32,25.25,162.55,-66.23,-22.72,34660,2015-10-08 15:48:50:961,0
1.4174,8.5234,3.2753,1.4973,9.0013,3.5923,-0.0416,-0.4588,-0.4128,-0.0469,0.0192,-0.0107,-0.75,-33.75,24.5,162.86,-66.48,-22.76,34759,2015-10-08 15:48:51:060,0
1.4174,8.5425,3.1603,1.5027,9.0021,3.5881,-0.0854,-0.4596,-0.4277,-0.0149,0.0192,0.0107,-0.75,-33,24.75,164.5,-66.62,-22.63,34860,2015-10-08 15:48:51:161,0
1.4365,8.5042,3.4093,1.5371,8.9829,3.6216,-0.1006,-0.4787,-0.2123,0.0256,-0.0937,-0.0511,-1.75,-33,24.75,162.48,-66.63,-22.72,34960,2015-10-08 15:48:51:261,0
1.4748,8.5234,3.4093,1.5581,8.9802,3.6193,-0.0832,-0.4568,-0.21,-0.0724,0.0213,-0.0064,-0.75,-32.5,24.5,162.26,-66.37,-23.11,35060,2015-10-08 15:48:51:361,0
1.3791,8.5234,3.3519,1.5472,8.9849,3.6121,-0.1682,-0.4616,-0.2602,0.0554,-0.0405,0.0021,-2,-33,25.25,160.7,-66.36,-23.35,35160,2015-10-08 15:48:51:461,0
1.4748,8.4851,3.4477,1.536,8.9823,3.6235,-0.0767,-0.4765,-0.2005,-0.0597,0.0256,-0.0362,-2.25,-33,24.75,160.92,-66.32,-23.04,35260,2015-10-08 15:48:51:561,0
1.4365,8.4851,3.5626,1.5294,8.9854,3.6186,-0.1117,-0.478,-0.0831,-0.0618,-0.1747,0.0298,-2,-31.75,25,160.81,-66.39,-22.87,35360,2015-10-08 15:48:51:661,0
1.494,8.4659,3.486,1.5518,8.9759,3.6324,-0.0579,-0.51,-0.1465,0.0767,-0.081,-0.0021,-1.25,-32.25,25.5,162.12,-66.39,-23.03,35460,2015-10-08 15:48:51:761,0
1.4365,8.5042,3.4668,1.5488,8.9732,3.6406,-0.1123,-0.469,-0.1738,0.0597,0.0043,-0.0064,-1.75,-33.75,24.5,161.04,-66.24,-23.2,35560,2015-10-08 15:48:51:861,0
1.4748,8.4851,3.4477,1.5346,8.9765,3.6384,-0.0598,-0.4915,-0.1907,0.049,-0.0533,0.0192,-2,-32.5,25,160.79,-66.32,-22.91,35660,2015-10-08 15:48:51:961,0
1.4174,8.5042,3.371,1.575,8.9929,3.58,-0.1577,-0.4887,-0.209,-0.0852,0.0213,0.0192,-1.75,-32,25.25,161.87,-66.36,-23.37,35760,2015-10-08 15:48:52:061,0
1.3982,8.5234,3.3136,1.5841,8.9901,3.5831,-0.1859,-0.4668,-0.2696,0.0575,0.0703,-0.0426,-1.25,-31.5,25,161.67,-66.43,-23.63,35860,2015-10-08 15:48:52:161,0
1.4365,8.5042,3.3136,1.5611,8.9967,3.5767,-0.1245,-0.4925,-0.2631,-0.0575,0.0874,-0.1172,-1.75,-31.5,24.5,160,-66.52,-23.67,35960,2015-10-08 15:48:52:261,0
1.4365,8.5042,3.4285,1.5347,8.9928,3.5978,-0.0982,-0.4886,-0.1693,-0.0575,0.0234,-0.0149,-1.25,-33,24.5,162.44,-66.46,-23.1,36060,2015-10-08 15:48:52:361,0
1.4557,8.4851,3.371,1.4974,9.001,3.593,-0.0735,-0.4973,-0.1771,0.1001,0.0618,0.0767,-0.75,-32.75,24.25,162.76,-66.63,-22.87,36160,2015-10-08 15:48:52:461,0
1.4748,8.6191,3.3902,1.496,8.9983,3.6004,-0.0223,-0.573,-0.2999,-0.0703,-0.0085,0.0064,-2.25,-32.5,24.25,161.13,-66.62,-22.56,36260,2015-10-08 15:48:52:561,0
1.4174,8.5042,3.486,1.4659,9.0077,3.5892,-0.0509,-0.4698,-0.1751,-0.0128,-0.1193,-0.0256,-1.25,-32,25.25,161.02,-66.57,-22.52,36360,2015-10-08 15:48:52:661,0
1.4557,8.5042,3.3902,1.4728,9.0099,3.581,0.0177,-0.544,-0.017,-0.0746,0.0746,-0.0256,-1.25,-32.25,25.25,162.75,-66.72,-22.31,36460,2015-10-08 15:48:52:761,0
1.4557,8.5042,3.4093,1.4672,9.01,3.5829,-0.0696,-0.5251,-0.1346,0.0256,0.0149,-0.0085,-2.25,-32,24.75,161.19,-66.77,-22.22,36560,2015-10-08 15:48:52:861,0
1.4365,8.5042,3.3327,1.4626,9.0037,3.6007,-0.0308,-0.5026,-0.2199,-0.0341,0.1598,0.0916,-2.25,-31.5,24.75,161.16,-66.75,-22.27,36660,2015-10-08 15:48:52:961,0
1.3982,8.5234,3.4285,1.4648,9.0014,3.6055,-0.0666,-0.478,-0.177,-0.0192,0.0043,0.1491,-1,-32,24.5,163.03,-66.64,-21.94,36760,2015-10-08 15:48:53:061,0
1.4365,8.4851,3.4285,1.5126,8.9898,3.6147,-0.0761,-0.5047,-0.1862,-0.0043,0.0788,0.0469,-1,-31.75,24.25,162.69,-66.52,-22.72,36860,2015-10-08 15:48:53:161,0
1.4557,8.4851,3.4285,1.5303,8.9776,3.6374,-0.0938,-0.4926,-0.2281,-0.0341,-0.0618,-0.0767,-1.25,-31.25,25,164.35,-66.45,-22.71,36960,2015-10-08 15:48:53:261,0
1.4174,8.5234,3.371,1.53,8.9659,3.6662,-0.1127,-0.4426,-0.3143,-0.049,0.0682,0.0107,-1.5,-31.25,25,160.56,-66.19,-22.97,37060,2015-10-08 15:48:53:361,0
1.4174,8.5234,3.371,1.5044,8.9735,3.6583,-0.0917,-0.4507,-0.284,0.0213,-0.0298,0.0362,-2.5,-31,25.25,160.96,-66.15,-22.42,37160,2015-10-08 15:48:53:461,0
1.4365,8.5234,3.4093,1.5218,8.9765,3.6437,-0.0898,-0.4503,-0.2394,-0.0831,-0.0639,0.0043,-2.5,-32.5,25.5,160.83,-66.26,-22.67,37260,2015-10-08 15:48:53:561,0
1.3982,8.5042,3.4093,1.544,8.9545,3.6883,-0.1458,-0.4503,-0.2789,0.0064,0.0597,0.0064,-2,-32.75,25.75,161.07,-65.94,-22.72,37360,2015-10-08 15:48:53:661,0
1.4365,8.4851,3.371,1.523,8.9736,3.6505,-0.0864,-0.4694,-0.222,0.017,0.0618,0.0724,-1,-32,25.25,162.6,-66.21,-22.65,37460,2015-10-08 15:48:53:761,0
1.4748,8.5042,3.4477,1.4938,8.9697,3.672,-0.0764,-0.4655,-0.186,0.0383,0.1214,0.0128,-1.75,-32.25,24.5,161.36,-66.16,-22.14,37560,2015-10-08 15:48:53:861,0
1.4174,8.5234,3.4477,1.4975,8.9839,3.6355,-0.0993,-0.4606,-0.2454,0.0703,-0.0874,-0.0234,-1,-30.75,24,162.83,-66.29,-22.28,37660,2015-10-08 15:48:53:961,0
1.3791,8.5617,3.371,1.5077,8.9739,3.6559,-0.0546,-0.4119,-0.2464,-0.1257,-0.0788,0.0256,-2.75,-31,24.25,159.42,-66.22,-22.41,37760,2015-10-08 15:48:54:061,0
1.4557,8.4851,3.3902,1.5214,8.9684,3.6639,-0.1102,-0.4666,-0.2268,-0.0362,-0.0447,0.0895,-1.75,-32,24.5,159.32,-66.15,-22.58,37860,2015-10-08 15:48:54:161,0
1.4174,8.5234,3.3902,1.5359,8.9713,3.6507,-0.1451,-0.4258,-0.2646,-0.0703,0.017,0.0192,-1.25,-31,24.5,162.05,-66.11,-22.88,37960,2015-10-08 15:48:54:261,0
1.4174,8.5234,3.4093,1.5738,8.9621,3.6572,-0.1612,-0.4339,-0.2959,-0.0085,0.0852,0.0447,-1.75,-31.75,24.5,160.59,-66.05,-23.28,38060,2015-10-08 15:48:54:361,0
1.3982,8.5425,3.3902,1.5696,8.9646,3.6527,-0.1714,-0.4221,-0.2625,-0.1172,-0.017,-0.0298,-2,-30.75,24.25,158.63,-65.99,-23.47,38160,2015-10-08 15:48:54:461,0
1.4365,8.5234,3.4285,1.5699,8.9489,3.6909,-0.1334,-0.4255,-0.2624,-0.0341,0.0192,-0.1641,-3,-29.5,25,158.45,-65.93,-23.03,38260,2015-10-08 15:48:54:561,0
1.4365,8.5042,3.4285,1.5721,8.9497,3.6882,-0.1356,-0.4454,-0.2597,-0.049,-0.0383,-0.049,-2.5,-30.5,24.5,159.04,-65.91,-22.9,38360,2015-10-08 15:48:54:661,0
1.494,8.4851,3.4477,1.5879,8.9339,3.7194,-0.1085,-0.3727,-0.2343,-0.0298,-0.0937,-0.0554,-2,-30.5,24.5,160.33,-65.64,-23.12,38460,2015-10-08 15:48:54:761,0
1.3599,8.5425,3.3136,1.5895,8.9459,3.6898,-0.1721,-0.4226,-0.2421,0.0064,0.0298,-0.0128,-2.5,-31,25.5,160.19,-65.76,-23.28,38560,2015-10-08 15:48:54:861,0
1.4365,8.4851,3.4093,1.6225,8.9414,3.6864,-0.0519,-0.4755,-0.1622,0.0213,0.0383,0.0021,-2.75,-31.25,25,160.16,-65.82,-23.64,38660,2015-10-08 15:48:54:961,0
1.5131,8.4467,3.4285,1.5974,8.9471,3.6834,-0.0843,-0.5004,-0.2549,-0.0277,-0.032,-0.0788,-2.25,-30.75,25,160.29,-65.83,-23.45,38760,2015-10-08 15:48:55:061,0
1.4365,8.5042,3.3136,1.6173,8.9392,3.694,-0.1808,-0.435,-0.3804,0.0149,-0.0043,0.0021,-2.25,-31.5,25.25,158.66,-65.72,-23.5,38860,2015-10-08 15:48:55:161,0
1.4748,8.5425,3.3327,1.6164,8.9321,3.7115,-0.1416,-0.3896,-0.3787,-0.098,-0.1193,0.0192,-1.5,-31.5,25,161.95,-65.62,-23.43,38960,2015-10-08 15:48:55:261,0
1.4557,8.5042,3.6009,1.6052,8.9409,3.6951,-0.1421,-0.4607,-0.2197,0.1001,-0.0128,0.0575,-1.5,-29.75,24.25,161.88,-65.74,-23.48,39060,2015-10-08 15:48:55:361,0
1.5131,8.4467,3.6966,1.6191,8.9437,3.6824,-0.0713,-0.4948,0.0107,0.066,0.0575,-0.0192,-1.75,-30.5,24.25,161.78,-65.93,-23.58,39160,2015-10-08 15:48:55:461,0
1.5323,8.5042,3.5626,1.6142,8.9552,3.6565,0.0338,-0.5467,-0.1902,-0.0043,0.0234,-0.0149,-1.75,-31.75,24.25,161.75,-65.91,-23.95,39260,2015-10-08 15:48:55:561,0
1.3791,8.5042,3.4477,1.5942,8.9735,3.6202,-0.2151,-0.4693,-0.1725,-0.0043,-0.0746,-0.1129,-1.5,-30.25,24,161.62,-66.08,-23.77,39360,2015-10-08 15:48:55:661,0
1.3982,8.5042,3.4093,1.5822,8.9785,3.6129,-0.1839,-0.4743,-0.2036,-0.0788,0.0085,-0.0149,-1,-32,24.75,161.84,-66.31,-23.72,39459,2015-10-08 15:48:55:760,0
1.4557,8.4851,3.486,1.5651,8.9752,3.6287,-0.1114,-0.4895,-0.1817,-0.0937,0.0746,-0.0021,-1.5,-30.75,25,161.99,-66.23,-23.23,39560,2015-10-08 15:48:55:861,0
1.4557,8.5234,3.4285,1.5319,8.9864,3.615,-0.0839,-0.4561,-0.2196,0.1278,-0.0575,-0.0597,-2.5,-30.25,24.75,160.07,-66.25,-23.33,39660,2015-10-08 15:48:55:961,0
1.3024,8.4851,3.4477,1.4923,8.9872,3.6295,-0.1776,-0.5244,-0.2097,-0.0682,0.0298,0.0852,-1.5,-30,24.75,160.07,-66.4,-22.97,39760,2015-10-08 15:48:56:061,0
1.4365,8.4851,3.0837,1.5188,8.9924,3.6057,-0.0823,-0.5073,-0.522,0.0128,-0.0554,0.115,-1.5,-30.25,24.75,160.74,-66.41,-22.35,39860,2015-10-08 15:48:56:161,0
1.4174,8.5234,3.3136,1.5223,8.9955,3.5963,-0.1049,-0.4722,-0.2828,-0.0256,-0.0192,-0.0597,-0.25,-30.75,25,163.73,-66.5,-22.99,39960,2015-10-08 15:48:56:261,0
1.4174,8.5234,3.2944,1.4969,8.9922,3.6151,-0.0796,-0.4689,-0.3207,-0.0469,0.0128,-0.0554,-0.5,-31.75,24.25,164.33,-66.48,-22.73,40060,2015-10-08 15:48:56:361,0
1.5131,8.4659,3.5051,1.5224,8.9734,3.6512,0.0386,-0.5105,-0.2574,-0.0554,0.0575,0.0405,-1.5,-31.75,24.75,162.52,-66.44,-22.43,40160,2015-10-08 15:48:56:461,0
1.3791,8.5234,3.2944,1.4888,8.9831,3.6412,-0.1097,-0.4789,-0.2893,0.0128,0.0064,0.1406,-1.75,-31.5,24,161.12,-66.19,-22.38,40260,2015-10-08 15:48:56:561,0
1.4748,8.5425,3.3136,1.502,8.9752,3.6553,-0.086,-0.5112,-0.3554,-0.0085,0.0149,0.0107,-2,-30.75,25.25,160.88,-66.27,-22.49,40360,2015-10-08 15:48:56:661,0
1.2067,8.5425,3.4285,1.4784,8.9824,3.647,-0.2703,-0.4339,-0.2147,-0.0383,0.0192,0.032,-1.75,-30.75,24.75,161.18,-66.19,-22.09,40460,2015-10-08 15:48:56:761,0
1.4365,8.5808,3.3327,1.4813,8.9828,3.645,-0.0448,-0.4019,-0.3123,0.0128,0.0107,0.0043,-2.25,-30.5,24.75,160.93,-66.38,-22.1,40560,2015-10-08 15:48:56:861,0
1.245,8.5425,3.371,1.4228,9.0044,3.6149,-0.1778,-0.4619,-0.2439,0.0874,-0.0746,0.0746,-2,-31.25,24.25,161.49,-66.35,-22.12,40660,2015-10-08 15:48:56:961,0
1.3791,8.5234,3.3136,1.4603,9.0119,3.5811,-0.0813,-0.4885,-0.2675,0.0916,0.0043,0.0937,-2.5,-31.25,25,161.14,-66.7,-22.02,40760,2015-10-08 15:48:57:061,0
1.3599,8.5234,3.3519,1.4768,9.014,3.569,-0.1169,-0.4906,-0.2172,0.0554,-0.0703,-0.032,-2.75,-31.5,25.5,159.11,-66.75,-22.44,40860,2015-10-08 15:48:57:161,0
1.3599,8.5425,3.2561,1.5002,9.0137,3.56,-0.1402,-0.4712,-0.3039,-0.0362,-0.0767,0.1406,-0.5,-31.25,25.5,163.69,-66.82,-22.68,40960,2015-10-08 15:48:57:261,0
1.4174,8.5425,3.3519,1.5106,9.0184,3.5436,-0.0716,-0.4759,-0.2007,0.0192,0.0618,-0.0021,-1.25,-30.5,24.75,161.91,-66.8,-22.92,41060,2015-10-08 15:48:57:361,0
1.4365,8.5425,3.2561,1.5146,9.0109,3.561,-0.0741,-0.4724,-0.2964,-0.0234,-0.0128,-0.0043,-1.75,-31.5,25,161.78,-66.87,-23.09,41160,2015-10-08 15:48:57:461,0
1.3408,8.5617,3.3136,1.5123,9.0069,3.572,-0.1524,-0.4644,-0.2775,0.0447,-0.0277,-0.0234,-1.5,-30.5,25.25,162.03,-66.76,-23.04,41260,2015-10-08 15:48:57:561,0
1.3982,8.5234,3.4285,1.51,9.0156,3.551,-0.1118,-0.4922,-0.1225,0.0298,-0.0575,-0.081,-1.75,-30.25,25.25,161.91,-66.7,-22.95,41360,2015-10-08 15:48:57:661,0
1.4174,8.5425,3.2753,1.4716,9.0183,3.5603,-0.0543,-0.4758,-0.285,-0.1129,-0.0149,-0.0703,-1.25,-31,25,162.34,-66.85,-22.58,41460,2015-10-08 15:48:57:761,0
1.3982,8.5617,3.2944,1.4886,9.0093,3.5759,-0.0904,-0.4476,-0.2815,-0.0192,0.1917,0.0874,-1.25,-30.5,25.25,162.18,-66.8,-22.54,41560,2015-10-08 15:48:57:861,0
1.4174,8.5234,3.3327,1.5087,9.0093,3.5675,-0.0913,-0.4859,-0.2348,-0.0362,-0.0788,-0.0533,-2,-31.5,24.75,162.35,-66.74,-22.6,41660,2015-10-08 15:48:57:961,0
1.3791,8.5617,3.3327,1.5057,9.0104,3.566,-0.1194,-0.4668,-0.1927,-0.0724,-0.017,-0.196,-1.75,-33,25.25,160.89,-66.71,-22.97,41760,2015-10-08 15:48:58:061,0
1.4365,8.4851,3.3327,1.5117,9.0007,3.5878,-0.0655,-0.4611,-0.1562,-0.049,-0.0128,0.1001,-2,-31.25,25.25,162.14,-66.75,-22.89,41860,2015-10-08 15:48:58:161,0
1.3982,8.5234,3.371,1.5057,9.003,3.5845,-0.1075,-0.4796,-0.2135,-0.081,0.1214,0.1087,-2.25,-32,25.5,160.45,-66.67,-22.81,41960,2015-10-08 15:48:58:261,0
1.3791,8.5042,3.3519,1.4931,9.0085,3.576,-0.0834,-0.4898,-0.2172,0.0213,-0.0682,0.0469,-1.5,-33,25.5,162.37,-66.6,-22.63,42060,2015-10-08 15:48:58:361,0
1.4174,8.5234,3.3327,1.4836,9.008,3.5812,-0.0426,-0.489,-0.2202,-0.0107,-0.0298,0.0298,-2.5,-31.25,25.5,162.36,-66.87,-22.58,42160,2015-10-08 15:48:58:461,0
1.3599,8.5617,3.2561,1.4351,9.0069,3.6037,-0.1086,-0.4239,-0.3091,-0.0256,-0.0043,-0.1619,-2,-31.5,26,161.05,-66.72,-21.96,42260,2015-10-08 15:48:58:561,0
1.4174,8.5234,3.2561,1.402,9.0185,3.5876,-0.0038,-0.476,-0.3315,0.0149,0.0959,-0.066,-2.25,-31,24.5,163.17,-66.7,-21.71,42359,2015-10-08 15:48:58:660,0
1.3791,8.4851,3.3136,1.4159,9.0132,3.5956,0.0398,-0.5281,-0.3203,0.0874,0.032,-0.049,-1.25,-32.25,25,163.27,-66.73,-21.57,42460,2015-10-08 15:48:58:761,0
1.3408,8.5808,3.2753,1.4144,9.0203,3.5783,-0.0635,-0.4451,-0.2929,0.066,0.0703,-0.0447,-0.75,-31.5,25.5,162.7,-66.86,-21.84,42560,2015-10-08 15:48:58:861,0
1.3982,8.5234,3.3136,1.3932,9.0199,3.5876,0.0129,-0.4951,-0.2807,-0.0874,0.0107,-0.0937,-1.5,-31.25,25.5,163.16,-67.01,-21.16,42660,2015-10-08 15:48:58:961,0
1.3982,8.5425,3.371,1.3631,9.0347,3.5617,0.0351,-0.4922,-0.1907,0.017,-0.0533,-0.0447,-1.25,-32,25.25,163.64,-67.11,-20.94,42760,2015-10-08 15:48:59:061,0
1.4174,8.5234,3.371,1.3216,9.042,3.5591,0.0958,-0.5186,-0.188,-0.017,-0.1321,-0.0937,-1,-33,25.25,164.05,-67.12,-20.61,42860,2015-10-08 15:48:59:161,0
1.3791,8.5425,3.3136,1.2867,9.0538,3.5416,0.0924,-0.5113,-0.228,0.0192,0.1619,-0.0362,-0.5,-33.25,25,166.12,-67.32,-19.88,42960,2015-10-08 15:48:59:261,0
1.4174,8.5234,3.3327,1.2873,9.0685,3.5036,0.1301,-0.5451,-0.1709,-0.066,-0.1385,0.0405,-0.5,-32.75,25.5,165.75,-67.4,-19.97,43060,2015-10-08 15:48:59:361,0
1.3791,8.5425,3.4093,1.3011,9.0624,3.5144,0.0779,-0.5198,-0.1051,-0.0021,0.0043,0.0021,-0.5,-32.5,25,165.7,-67.55,-20.22,43160,2015-10-08 15:48:59:461,0
1.3791,8.5234,3.3327,1.306,9.0711,3.4901,0.0731,-0.5477,-0.1573,-0.0234,-0.0234,0.0937,-1.75,-31.25,26,161.96,-67.7,-20.46,43260,2015-10-08 15:48:59:561,0
1.3791,8.5425,3.2753,1.2918,9.0784,3.4763,0.0872,-0.5359,-0.201,0.0277,-0.0554,-0.066,-1,-31,25.75,163.67,-67.74,-20.31,43360,2015-10-08 15:48:59:661,0
1.3408,8.5808,3.2753,1.3033,9.0785,3.4717,0.0374,-0.4977,-0.1965,0.0064,-0.0341,0.0831,-0.75,-30.25,25.75,163.29,-67.78,-20.58,43460,2015-10-08 15:48:59:761,0
1.3791,8.5617,3.2944,1.3729,9.0695,3.4683,0.0062,-0.5079,-0.1739,-0.0937,0.0192,-0.0085,-1.75,-31.75,25.75,163.09,-67.74,-20.86,43560,2015-10-08 15:48:59:861,0
1.3791,8.5425,3.2944,1.3794,9.0733,3.4559,-0.0014,-0.5334,-0.1542,0.0085,0.0831,0.066,-0.75,-31.75,25.25,162.97,-67.64,-21.76,43660,2015-10-08 15:48:59:961,0
1.3982,8.5234,3.2944,1.3828,9.0742,3.452,0.012,-0.5722,-0.1507,0.0746,-0.0021,0.0213,-1.5,-30.75,25.75,162.55,-67.75,-21.84,43760,2015-10-08 15:49:00:061,0
1.3791,8.5425,3.3902,1.3678,9.0801,3.4427,0.0209,-0.5356,-0.0997,-0.0021,-0.017,0.0107,-1,-30.5,25.25,162.64,-67.81,-21.67,43860,2015-10-08 15:49:00:161,0
1.3791,8.5234,3.2753,1.3631,9.0918,3.4134,0.0159,-0.5685,-0.1381,0.0383,0.0064,0.0874,-2,-30.75,26,160.72,-67.8,-21.87,43960,2015-10-08 15:49:00:261,0
1.3982,8.5425,3.371,1.362,9.0934,3.4097,0.0362,-0.5891,-0.1153,-0.017,0.066,0.0277,-0.75,-32,25.5,162.75,-68.05,-21.75,44060,2015-10-08 15:49:00:361,0
1.3982,8.5234,3.2944,1.3366,9.0965,3.4115,0.0616,-0.5731,-0.117,-0.0192,-0.0426,0.0383,-0.75,-30.75,25.75,162.83,-67.98,-21.4,44160,2015-10-08 15:49:00:461,0
1.3599,8.5808,3.2944,1.3474,9.107,3.3791,0.0125,-0.5261,-0.0847,0.0383,0.0703,-0.0383,-0.75,-32.25,25.5,162.75,-68.17,-21.72,44260,2015-10-08 15:49:00:561,0
1.3599,8.5617,3.2944,1.3467,9.1152,3.3572,0.0132,-0.5535,-0.0627,0.0362,-0.1236,0.0341,-1.75,-31.75,25,161.07,-68.27,-21.98,44360,2015-10-08 15:49:00:661,0
1.3408,8.5425,3.371,1.3797,9.107,3.3659,-0.039,-0.5645,0.0052,-0.0447,-0.0277,-0.032,-1.25,-31.75,25.75,162.33,-68.23,-22.29,44460,2015-10-08 15:49:00:761,0
1.4174,8.5234,3.3136,1.3789,9.1009,3.3826,0.0167,-0.5362,-0.0187,-0.0724,0.0554,0.0362,-0.75,-32.25,25,162.63,-68.04,-22.15,44560,2015-10-08 15:49:00:861,0
1.3599,8.5617,3.2944,1.3609,9.1037,3.3826,-0.001,-0.542,-0.0881,-0.049,0.0597,0.049,0,-30.5,25.5,163.87,-68.17,-21.92,44660,2015-10-08 15:49:00:961,0
1.3599,8.5425,3.3902,1.3383,9.0972,3.4088,0.0216,-0.5547,-0.0952,0.0405,-0.1555,0.1641,-0.75,-30.5,25.25,162.5,-68.14,-21.78,44760,2015-10-08 15:49:01:061,0
1.3791,8.5234,3.4093,1.3435,9.0976,3.4056,0.0355,-0.536,-0.0729,0.0256,0.0554,-0.0895,-0.5,-30.75,25,164.53,-68.08,-21.53,44860,2015-10-08 15:49:01:161,0
1.3791,8.5234,3.3902,1.355,9.0926,3.4145,0.0241,-0.5693,-0.0243,0.0426,0.0469,0.0639,-0.5,-31.25,24.75,164.49,-68.07,-21.58,44960,2015-10-08 15:49:01:261,0
1.3982,8.5425,3.2944,1.3922,9.096,3.3903,0.0061,-0.5535,-0.0959,-0.0788,-0.0085,0.0916,-0.75,-32.75,25.25,162.99,-68,-21.64,45060,2015-10-08 15:49:01:361,0
1.3791,8.5234,3.371,1.4578,9.0816,3.4013,-0.0788,-0.5583,-0.0303,0.0213,0.0597,0.1534,-2,-31,25,160.08,-67.83,-23.2,45160,2015-10-08 15:49:01:461,0
1.3791,8.5234,3.3902,1.4447,9.0838,3.4013,-0.0656,-0.5604,-0.0111,0.0192,0.0213,0.0746,-2,-31,25.5,160.08,-67.86,-23.01,45260,2015-10-08 15:49:01:561,0
1.3408,8.5425,3.2944,1.4347,9.0819,3.4103,-0.0501,-0.5593,-0.0014,0.0128,0.0192,-0.0639,-2.25,-30.75,25.25,160.08,-67.86,-23.01,45360,2015-10-08 15:49:01:661,0
1.3791,8.5234,3.371,1.4422,9.0773,3.4194,-0.0632,-0.554,-0.0484,-0.1342,-0.1065,0.1619,-2,-31.5,25.25,160.35,-67.83,-22.82,45460,2015-10-08 15:49:01:761,0
1.3982,8.5234,3.371,1.4599,9.0571,3.4653,-0.0617,-0.5337,-0.0943,-0.0767,0.115,0.032,-1.75,-32,25.25,160.62,-67.45,-22.85,45560,2015-10-08 15:49:01:861,0
1.3982,8.5234,3.371,1.4595,9.0611,3.455,-0.0613,-0.5377,-0.084,0.017,0.0192,0.1023,-2,-31.5,25.5,160.25,-67.45,-22.88,45660,2015-10-08 15:49:01:961,0
1.3982,8.5425,3.3519,1.4252,9.0668,3.4543,-0.0854,-0.5221,-0.2035,0.0107,0.0149,0.0937,-1.5,-32,25.25,160.57,-67.51,-22.9,45760,2015-10-08 15:49:02:061,0
1.3599,8.5425,3.4093,1.4564,9.0661,3.4431,-0.0886,-0.5247,-0.0452,-0.0298,0.0511,0.0916,-1.75,-32.25,25,160.73,-67.49,-22.67,45860,2015-10-08 15:49:02:161,0
1.3982,8.5234,3.2944,1.4542,9.0761,3.4177,-0.0534,-0.5318,-0.1674,0.0724,0.0895,0.0469,-2.25,-32.5,25.75,160.33,-67.64,-23.02,45960,2015-10-08 15:49:02:261,0
1.3982,8.5234,3.4093,1.4557,9.0801,3.4063,-0.0575,-0.5568,0.0031,-0.0618,-0.0064,0.081,-1.25,-32.25,25.25,162.03,-67.79,-23.06,46060,2015-10-08 15:49:02:361,0
1.4174,8.5234,3.3519,1.4707,9.0775,3.4069,-0.1263,-0.5159,-0.1056,0.0064,0.0959,-0.0447,-1.5,-31,25,161.49,-67.81,-23.53,46160,2015-10-08 15:49:02:461,0
1.3982,8.5617,3.2944,1.4644,9.0666,3.4384,-0.0607,-0.5268,-0.0052,0.0192,0.066,0.0149,-2.25,-31.5,25,160.2,-67.68,-23.07,46260,2015-10-08 15:49:02:561,0
1.3982,8.5234,3.4477,1.4945,9.0494,3.4707,-0.1021,-0.5295,-0.088,-0.1108,0.0213,-0.0639,-2,-30.75,24.5,161.97,-67.64,-22.91,46360,2015-10-08 15:49:02:661,0
1.4365,8.5234,3.4093,1.5177,9.0469,3.467,-0.0812,-0.5236,-0.0577,0.1001,-0.0959,-0.0107,-1.5,-30.75,24.5,161.75,-67.34,-23.3,46460,2015-10-08 15:49:02:761,0
1.3599,8.5234,3.2944,1.5429,9.0496,3.4489,-0.183,-0.5262,-0.1545,-0.0618,0.0085,0.1044,-1.25,-31,25.5,161.51,-67.3,-23.64,46560,2015-10-08 15:49:02:861,0
1.3791,8.5425,3.2561,1.5331,9.0451,3.4651,-0.154,-0.5026,-0.2089,-0.0043,-0.0256,0.1129,-1.5,-31.25,25.5,161.02,-67.22,-24.08,46660,2015-10-08 15:49:02:961,0
1.3599,8.5425,3.3136,1.5569,9.0456,3.4531,-0.197,-0.5031,-0.1395,0.0213,0.032,-0.0724,-2,-31.25,25.25,159.6,-67.26,-24.03,46760,2015-10-08 15:49:03:061,0
1.3791,8.5234,3.3327,1.5559,9.0511,3.439,-0.196,-0.5086,-0.1446,0.1406,-0.0746,-0.081,-1.5,-32.75,25.5,161.38,-67.31,-24.12,46860,2015-10-08 15:49:03:161,0
1.4174,8.5425,3.2944,1.5388,9.0594,3.4249,-0.1406,-0.536,-0.1496,-0.0107,0.0469,0.1236,-0.75,-34.75,25.5,161.4,-67.4,-24.63,46960,2015-10-08 15:49:03:261,0
1.4174,8.5234,3.3136,1.5789,9.0444,3.4461,-0.177,-0.5225,-0.0731,0.0469,0.081,-0.0085,-0.5,-31.75,25.5,162.39,-67.3,-24.64,47060,2015-10-08 15:49:03:361,0
1.3791,8.5042,3.3519,1.5885,9.0439,3.4431,-0.2043,-0.4967,-0.0778,-0.0746,-0.1193,0.1129,-0.75,-32,25.75,160.81,-67.26,-24.65,47160,2015-10-08 15:49:03:461,0
1.4174,8.5234,3.3902,1.6224,9.033,3.4558,-0.2051,-0.5097,-0.0656,-0.0128,-0.0085,-0.0533,-0.75,-32.25,25.25,160.93,-67.11,-24.81,47260,2015-10-08 15:49:03:561,0
1.3791,8.5234,3.4093,1.6016,9.0549,3.408,-0.2226,-0.5315,0.0013,-0.0149,0.0426,-0.0362,-1.5,-32.5,25.5,160.74,-67.39,-24.72,47360,2015-10-08 15:49:03:661,0
1.3982,8.5234,3.2753,1.5901,9.049,3.429,-0.1919,-0.5256,-0.1538,0.0895,-0.0085,0.1236,-1.5,-31.75,25.5,160.47,-67.34,-25.11,47460,2015-10-08 15:49:03:761,0
1.4365,8.5234,3.3902,1.6026,9.046,3.431,-0.2036,-0.5192,-0.1461,-0.0746,0.0234,-0.0852,-0.5,-31.25,25.25,162.1,-67.2,-25.13,47560,2015-10-08 15:49:03:861,0
1.3599,8.5234,3.3902,1.6038,9.0502,3.4193,-0.2028,-0.5257,0.0622,-0.0256,0.0043,-0.0234,-1,-31.25,25.25,160.44,-67.35,-25.14,47660,2015-10-08 15:49:03:961,0
1.4174,8.5042,3.371,1.5799,9.0548,3.4184,-0.1587,-0.548,0.0206,0.0426,0.0426,-0.1449,-1.25,-31.75,25.5,160.25,-67.35,-25.13,47760,2015-10-08 15:49:04:061,0
1.4557,8.5425,3.4477,1.5886,9.054,3.4165,-0.1581,-0.5312,-0.0883,0.0469,0.0213,0.0469,0.25,-32.75,25.25,162.78,-67.49,-24.63,47860,2015-10-08 15:49:04:161,0
1.3599,8.5425,3.371,1.5752,9.0512,3.4301,-0.2322,-0.4866,-0.0487,0.0746,0.0767,-0.0149,-1,-32.25,24.75,162.59,-67.41,-24.94,47960,2015-10-08 15:49:04:261,0
1.4365,8.5042,3.371,1.5679,9.052,3.4313,-0.1314,-0.5478,-0.0603,-0.0107,-0.0469,-0.0554,-2.5,-31,25,159.14,-67.36,-24.65,48060,2015-10-08 15:49:04:361,0
1.3791,8.5234,3.4285,1.5596,9.0468,3.4487,-0.1805,-0.5234,-0.0202,0.032,-0.1342,0.0426,-3,-32,24.75,157.91,-67.37,-24.4,48160,2015-10-08 15:49:04:461,0
1.3982,8.5234,3.3327,1.553,9.028,3.5004,-0.1548,-0.5047,-0.1677,-0.0234,-0.0043,-0.1087,-0.5,-32.5,24.75,162.82,-67.08,-24.42,48260,2015-10-08 15:49:04:561,0
1.3982,8.5425,3.2944,1.5442,9.0192,3.5269,-0.146,-0.4767,-0.2325,0.0341,0.0703,-0.0405,-0.5,-32.5,25.25,163.19,-66.85,-23.95,48360,2015-10-08 15:49:04:661,0
1.3791,8.5425,3.3136,1.5266,9.0257,3.5181,-0.1476,-0.4832,-0.2045,0.066,0.0298,-0.0767,-0.5,-31.25,25.5,163.22,-66.95,-23.31,48460,2015-10-08 15:49:04:761,0
1.3982,8.5234,3.3519,1.5065,9.028,3.5209,-0.112,-0.5045,-0.1677,0.0383,-0.0256,-0.0192,-1,-32.25,24.5,162.09,-66.99,-23.18,48560,2015-10-08 15:49:04:861,0
1.3791,8.5617,3.3136,1.5273,9.0364,3.4902,-0.1517,-0.4744,-0.1759,0.017,0.0277,0.0511,-1.25,-31.25,25.5,161.49,-67.1,-23.47,48660,2015-10-08 15:49:04:961,0
1.3599,8.5425,3.3136,1.4776,9.0591,3.4525,-0.132,-0.5076,-0.1563,-0.0277,-0.0533,-0.2109,-0.75,-31.25,25.75,161.55,-67.14,-23.63,48760,2015-10-08 15:49:05:061,0
1.3791,8.5234,3.3519,1.4695,9.0527,3.4726,-0.0919,-0.5308,-0.1165,-0.0852,0.0277,-0.147,-2,-29.75,25.25,161.42,-67.57,-23.17,48860,2015-10-08 15:49:05:161,0
1.4365,8.5234,3.3327,1.4455,9.0448,3.5033,0.0087,-0.5217,-0.1771,-0.0618,-0.0192,-0.0597,-1.75,-30.5,25,160.53,-67.27,-22.42,48960,2015-10-08 15:49:05:261,0
1.3982,8.5425,3.371,1.4499,9.0396,3.5147,-0.0564,-0.5311,-0.1529,-0.0064,-0.0426,0.098,-3,-31.5,25.5,159.04,-67.19,-22.42,49060,2015-10-08 15:49:05:361,0
1.3982,8.5425,3.3327,1.4175,9.0343,3.5415,-0.0193,-0.4918,-0.2088,-0.0426,0.0107,0.1406,-1.5,-31.5,25.5,162.68,-67.11,-21.81,49160,2015-10-08 15:49:05:461,0
1.3791,8.5617,3.2753,1.4277,9.0325,3.5421,-0.087,-0.4708,-0.2669,0.1129,-0.0149,0.1193,-1.5,-31,25,162.75,-67.08,-21.95,49260,2015-10-08 15:49:05:561,0
1.3982,8.5425,3.2561,1.4569,9.0202,3.5615,-0.097,-0.4585,-0.2096,0.0724,0.0064,0.049,-0.25,-30.5,25,164.02,-66.9,-22.25,49360,2015-10-08 15:49:05:661,0
1.3408,8.5808,3.3327,1.453,9.0183,3.5677,-0.074,-0.4567,-0.235,0.0639,-0.0085,0.098,0,-30.75,24.75,164.25,-66.83,-22.19,49460,2015-10-08 15:49:05:761,0
1.3791,8.5617,3.2753,1.4444,9.0364,3.5254,-0.0748,-0.4724,-0.2522,0.0597,0.0746,0.0298,-1,-31.5,24.75,162.51,-67.14,-22.28,49560,2015-10-08 15:49:05:861,0
1.3599,8.5617,3.2944,1.4633,9.0264,3.543,-0.0951,-0.4934,-0.2468,0.1854,0.0192,-0.0234,-1.75,-31,24.5,160.78,-66.99,-22.44,49660,2015-10-08 15:49:05:961,0
1.3599,8.5425,3.3136,1.4262,9.0409,3.5211,-0.0802,-0.513,-0.2405,-0.0043,0.1023,0.0021,-1.25,-31.5,25,162.44,-67.19,-22.36,49760,2015-10-08 15:49:06:061,0
1.3791,8.5425,3.3519,1.4214,9.0243,3.5654,-0.042,-0.4647,-0.2084,0.0682,0.0767,0.0192,-1.25,-32,25.25,163.11,-66.96,-21.74,49860,2015-10-08 15:49:06:161,0
1.3599,8.5425,3.3136,1.4291,9.018,3.5782,-0.0309,-0.4564,-0.188,0.0128,0.0362,0.0959,-0.5,-31.25,24.75,164.43,-66.9,-21.91,49960,2015-10-08 15:49:06:261,0
1.4174,8.5425,3.2944,1.4501,9.0188,3.5679,-0.071,-0.4762,-0.1394,-0.0639,0.0511,0.0405,-1.5,-31.5,24.25,163.1,-66.87,-21.77,50060,2015-10-08 15:49:06:361,0
1.3982,8.5234,3.371,1.4204,9.0259,3.5617,-0.0696,-0.5045,-0.1437,-0.0085,-0.017,-0.0724,-2,-30.25,25,161.07,-66.98,-21.74,50160,2015-10-08 15:49:06:461,0
1.3791,8.5425,3.371,1.4349,9.0011,3.6181,-0.0432,-0.4668,-0.2318,-0.1236,0.0469,0.0575,-1.75,-30,25,161.18,-66.93,-21.6,50260,2015-10-08 15:49:06:561,0
1.3599,8.5617,3.2944,1.429,9.0025,3.617,-0.0472,-0.4614,-0.2818,-0.032,0.0149,0.0298,-2.5,-30.25,25,162.86,-66.62,-21.63,50360,2015-10-08 15:49:06:661,0
1.3599,8.5617,3.2944,1.4195,8.9964,3.636,-0.0596,-0.4347,-0.3032,0.0874,-0.0043,0.0234,-2.5,-31,25.75,161.61,-66.55,-21.21,50460,2015-10-08 15:49:06:761,0
1.4174,8.5425,3.4093,1.4261,9.0012,3.6214,-0.0662,-0.4587,-0.327,0.0277,0.1065,-0.0554,-2,-31.25,26,161.4,-66.58,-21.5,50560,2015-10-08 15:49:06:861,0
1.3791,8.5617,3.3327,1.4289,8.9933,3.6399,-0.0116,-0.4316,-0.4221,0.0107,0.1342,0.0426,-2.5,-30,25.75,161.24,-66.57,-21.44,50660,2015-10-08 15:49:06:961,0
1.3024,8.5425,3.2753,1.4371,9.0101,3.5948,-0.1347,-0.4676,-0.3195,0.0554,-0.1001,0.0767,-2.75,-30.75,25.5,159.65,-66.5,-21.43,50760,2015-10-08 15:49:07:061,0
1.3982,8.5425,3.2753,1.4569,8.9992,3.6141,-0.0778,-0.4376,-0.3963,-0.0043,0.1023,0.0277,-2.75,-31,25.5,159.64,-66.73,-21.7,50860,2015-10-08 15:49:07:161,0
1.3408,8.5234,3.4093,1.4132,8.9985,3.6332,-0.0725,-0.456,-0.3005,-0.0298,0.0383,0.0383,-2,-31,25.75,161.07,-66.59,-21.95,50960,2015-10-08 15:49:07:261,0
1.3791,8.5425,3.371,1.3913,9.0167,3.5963,-0.0122,-0.4742,-0.2253,0.2684,0.0021,-0.1087,-1.25,-32,24.75,163.57,-66.76,-21.13,51060,2015-10-08 15:49:07:361,0
1.3791,8.5234,3.3519,1.3941,9.0347,3.5498,-0.015,-0.5114,-0.1979,-0.0021,0.1342,-0.0682,-1.25,-31.5,24.25,163.41,-67.08,-21.26,51160,2015-10-08 15:49:07:461,0
1.4365,8.5234,3.371,1.3894,9.0294,3.565,0.0471,-0.5061,-0.194,0.0107,0.0277,-0.147,-2.5,-31.25,24.75,161.38,-66.97,-21.61,51260,2015-10-08 15:49:07:561,0
1.3791,8.5042,3.3902,1.3816,9.0246,3.5802,-0.0026,-0.5204,-0.19,0.0298,0.0107,-0.0043,-2.75,-31,24.75,159.97,-66.99,-21.28,51360,2015-10-08 15:49:07:661,0
1.3791,8.5234,3.3519,1.3948,9.0239,3.577,-0.0149,-0.5017,-0.1459,0.0852,0.0085,0.0618,-2.5,-31.75,25.25,161.82,-67,-21.26,51460,2015-10-08 15:49:07:761,0
1.3791,8.5425,3.371,1.3734,9.0396,3.5453,0.0056,-0.4971,-0.1934,-0.0085,0.0192,0.0639,-2.5,-33,25.25,163.25,-66.95,-21.3,51560,2015-10-08 15:49:07:861,0
1.3791,8.5425,3.4285,1.377,9.0351,3.5556,0.0021,-0.4925,-0.1271,0.0128,0.0703,0.0511,-2,-31.75,25.5,161.71,-67.06,-21.23,51660,2015-10-08 15:49:07:961,0
1.3982,8.5425,3.3327,1.3683,9.0277,3.5776,0.03,-0.4852,-0.2449,0.0234,-0.0703,0.0746,-1,-30.5,25.75,162.98,-66.99,-21.17,51760,2015-10-08 15:49:08:061,0
1.3599,8.5234,3.3327,1.3885,9.0363,3.5478,-0.0286,-0.513,-0.215,0.0554,0.0383,-0.0213,-2.25,-30.75,25,161.63,-67.06,-21.24,51860,2015-10-08 15:49:08:161,0
1.3982,8.5425,3.2753,1.4087,9.0307,3.5542,-0.0105,-0.4882,-0.2789,-0.0341,-0.0277,-0.0128,-1.25,-30.25,25.25,161.43,-67.21,-21.19,51959,2015-10-08 15:49:08:260,0
1.3982,8.5042,3.2753,1.4164,9.0253,3.5649,-0.0948,-0.5402,-0.1747,-0.0107,0.0383,0.0426,-1.75,-29.75,25.25,161,-66.99,-21.84,52060,2015-10-08 15:49:08:361,0
1.5514,8.4659,3.0837,1.4035,9.0349,3.5455,0.1479,-0.569,-0.4617,0.0639,0.0192,-0.1001,-2.25,-30.5,25.75,161.04,-66.97,-21.62,52160,2015-10-08 15:49:08:461,0
1.3024,8.5617,3.3902,1.3402,9.0282,3.5868,-0.0377,-0.4666,-0.1966,-0.1619,-0.1278,-0.066,-2,-30.5,25.5,162.34,-67.14,-21.75,52260,2015-10-08 15:49:08:561,0
1.3024,8.6383,3.5051,1.3502,9.0283,3.5829,-0.0478,-0.39,-0.0778,0.0192,-0.1108,0.115,-1.75,-30,24.75,161.82,-66.93,-20.43,52360,2015-10-08 15:49:08:661,0
1.3216,8.6,3.1603,1.395,9.0453,3.5223,-0.0734,-0.4453,-0.3619,-0.0597,0.1087,0.0426,-2.25,-29.75,25.75,161.51,-67.2,-20.93,52460,2015-10-08 15:49:08:761,0
1.3216,8.6,3.2561,1.3632,9.0523,3.5169,-0.0417,-0.4523,-0.2608,-0.0916,-0.0107,-0.1044,-2,-30.25,25.25,161.28,-67.38,-21.35,52560,2015-10-08 15:49:08:861,0
1.2641,8.4851,3.486,1.345,9.0488,3.5328,-0.0809,-0.5638,-0.0468,0.0469,-0.0895,-0.0107,-2.5,-30.25,25.75,161.39,-67.39,-21.05,52660,2015-10-08 15:49:08:961,0
1.2641,8.5425,3.2753,1.347,9.056,3.5136,-0.0829,-0.5134,-0.2384,-0.147,0.0149,-0.0447,-3,-31.5,25.5,159.87,-67.53,-21.18,52760,2015-10-08 15:49:09:061,0
1.3024,8.5425,3.3327,1.3306,9.0503,3.5345,-0.0281,-0.5078,-0.2017,0.032,0.1193,0.0895,-1.75,-31.75,25.25,162.2,-67.35,-20.63,52860,2015-10-08 15:49:09:161,0
1.2833,8.5042,3.3902,1.3134,9.043,3.5594,-0.0301,-0.5388,-0.1692,0.0874,-0.0107,-0.0639,-0.75,-30.75,25,163.69,-67.42,-20.55,52959,2015-10-08 15:49:09:260,0
1.3216,8.5234,3.4285,1.3491,9.0271,3.5864,-0.0275,-0.5037,-0.1579,-0.0533,0.0298,0.032,-1.75,-30.25,25.25,162.22,-67.36,-20.32,53060,2015-10-08 15:49:09:361,0
1.3216,8.5234,3.371,1.3886,9.0283,3.5681,-0.067,-0.505,-0.1971,0.0511,0.049,0.0852,-0.75,-30.5,25,163.63,-67.05,-20.72,53160,2015-10-08 15:49:09:461,0
1.3024,8.5617,3.2753,1.3775,9.0325,3.562,-0.0559,-0.5283,-0.2484,-0.0213,0.0533,0.0724,-1.5,-31.5,25,161.63,-67.06,-21.24,53260,2015-10-08 15:49:09:561,0
1.3791,8.5234,3.2944,1.4167,9.0375,3.5338,-0.0185,-0.495,-0.1244,-0.066,0.0234,-0.0107,-1.5,-30.5,25.25,162.67,-67.18,-21.77,53360,2015-10-08 15:49:09:661,0
1.3408,8.5234,3.4093,1.4215,9.0225,3.57,-0.0405,-0.5192,-0.1015,-0.0256,0.0447,0.032,-2.5,-30.75,25.75,161.08,-67.01,-21.84,53460,2015-10-08 15:49:09:761,0
1.3599,8.5042,3.4285,1.4546,9.02,3.5628,-0.1122,-0.5133,-0.218,-0.0383,-0.1108,-0.0064,-2.75,-29,25.25,158.86,-66.9,-22.21,53560,2015-10-08 15:49:09:861,0
1.3791,8.5042,3.3327,1.4493,9.0153,3.577,-0.1277,-0.4919,-0.1868,-0.0533,-0.0298,-0.0298,-2,-30.25,24.75,160.87,-66.82,-22.06,53660,2015-10-08 15:49:09:961,0
1.3024,8.5425,3.371,1.4664,9.0124,3.5773,-0.1639,-0.4699,-0.2063,0.0256,-0.0149,-0.0895,-1.25,-30,24.75,162.73,-66.8,-22.05,53760,2015-10-08 15:49:10:061,0
1.3791,8.5425,3.371,1.4838,9.0283,3.5296,-0.1047,-0.4858,-0.1586,0.0554,-0.0788,-0.0703,-1.75,-31.25,25.25,162.48,-66.8,-22.4,53860,2015-10-08 15:49:10:161,0
1.2833,8.5425,3.371,1.4845,9.0193,3.5523,-0.2012,-0.4768,-0.1812,0.0405,0.115,0.1065,-1.75,-31.25,25.25,160.61,-66.91,-22.7,53960,2015-10-08 15:49:10:261,0
1.3408,8.5617,3.2178,1.49,9.0109,3.5713,-0.1493,-0.4492,-0.3535,-0.017,-0.1364,-0.0043,-1.5,-30.75,25,162.22,-66.68,-22.8,54060,2015-10-08 15:49:10:361,0
1.3216,8.5042,3.371,1.5179,9.0038,3.5775,-0.1963,-0.4996,-0.2065,0.1342,-0.0554,0.0937,-0.25,-30.75,25.25,163.71,-66.65,-22.99,54160,2015-10-08 15:49:10:461,0
1.3216,8.5234,3.3902,1.5209,9.0074,3.567,-0.199,-0.5026,-0.1403,-0.0192,-0.032,-0.0128,-0.5,-31.25,25.25,163.63,-66.71,-23.09,54259,2015-10-08 15:49:10:560,0
1.245,8.5234,3.371,1.5228,9.0097,3.5605,-0.2761,-0.4855,-0.2115,-0.0341,0.0959,-0.0426,-0.5,-32.25,25,161.9,-66.69,-23.24,54360,2015-10-08 15:49:10:661,0
1.3791,8.5425,3.3327,1.5189,9.0029,3.5793,-0.1422,-0.459,-0.249,-0.0234,-0.0405,-0.049,-1.75,-31.75,25.5,160.52,-66.62,-23.01,54460,2015-10-08 15:49:10:761,0
1.3599,8.5042,3.4093,1.5126,9.0021,3.5839,-0.139,-0.48,-0.2457,0.0554,-0.0085,0.0554,-1,-31.75,25.5,162.18,-66.63,-22.88,54560,2015-10-08 15:49:10:861,0
1.3599,8.5425,3.2944,1.4666,9.0168,3.5662,-0.1054,-0.4744,-0.272,0.0256,-0.0064,-0.1172,-1.5,-31.5,25.75,162.18,-66.77,-22.58,54660,2015-10-08 15:49:10:961,0
1.3216,8.5617,3.371,1.4365,9.0269,3.5527,-0.1111,-0.4649,-0.184,0.017,-0.049,0.0213,-1.25,-31.5,25.5,162.53,-67,-22.04,54760,2015-10-08 15:49:11:061,0
1.3408,8.5617,3.3327,1.4219,9.0267,3.5591,-0.0829,-0.4696,-0.2141,-0.1236,0.0703,0.0043,-1,-32.25,26,162.91,-66.99,-21.78,54860,2015-10-08 15:49:11:161,0
1.3599,8.5425,3.3327,1.4368,9.0237,3.5606,-0.0906,-0.4858,-0.2107,0.1534,-0.0405,0.0192,-1,-31.5,25.5,162.59,-66.95,-21.98,54960,2015-10-08 15:49:11:261,0
1.3599,8.5425,3.3327,1.4612,9.0326,3.5281,-0.063,-0.5093,-0.1762,0.0128,-0.0234,0.0618,-2.5,-32,25.25,161.09,-66.99,-22.3,55060,2015-10-08 15:49:11:361,0
1.3791,8.5425,3.2944,1.4651,9.0499,3.4818,-0.0861,-0.4882,-0.2448,0.0746,0.0362,0.098,-2.5,-31.5,25.5,160.3,-67.23,-22.87,55160,2015-10-08 15:49:11:461,0
1.3982,8.5234,3.3136,1.4568,9.0554,3.4711,-0.0577,-0.511,-0.0588,-0.0341,-0.0234,-0.0447,-2.25,-29.5,25.5,159.95,-67.41,-23.2,55260,2015-10-08 15:49:11:561,0
1.3791,8.5234,3.2753,1.4458,9.0494,3.4912,-0.0317,-0.5236,-0.125,-0.0149,-0.0192,-0.0149,-2.25,-29.5,25.25,160.25,-67.34,-22.5,55361,2015-10-08 15:49:11:662,0
1.3791,8.5234,3.3519,1.4673,9.0488,3.4839,-0.0883,-0.5254,-0.132,-0.1342,0.0043,0.0362,-1.25,-32,25.5,160.29,-67.35,-22.74,55460,2015-10-08 15:49:11:761,0
1.3599,8.5425,3.2753,1.4433,9.0357,3.5274,-0.0405,-0.5138,-0.1277,-0.0405,-0.0597,-0.1214,-1,-31.5,25.25,162.18,-67.18,-22.73,55560,2015-10-08 15:49:11:861,0
1.3408,8.5425,3.3136,1.4363,9.0375,3.5257,-0.0955,-0.495,-0.2121,-0.0277,0.0256,0.0874,-1.5,-31.75,24.5,164.16,-67.13,-22.25,55660,2015-10-08 15:49:11:961,0
1.3791,8.5425,3.3327,1.4352,9.0348,3.5332,-0.0598,-0.5092,-0.2047,-0.0618,-0.0874,-0.0021,-1.5,-32.75,25.5,162.81,-67.14,-22.14,55760,2015-10-08 15:49:12:061,0
1.3599,8.5425,3.3902,1.4597,9.0305,3.5341,-0.081,-0.5055,-0.2055,-0.0192,-0.1129,0.115,-1,-30.75,24.75,162.52,-67.15,-22.26,55860,2015-10-08 15:49:12:161,0
1.3408,8.5617,3.3136,1.4092,9.0344,3.5445,-0.0684,-0.4728,-0.2309,0.1001,-0.0639,-0.0597,-2.25,-30.25,25,160.9,-67.03,-21.97,55960,2015-10-08 15:49:12:261,0
1.3599,8.5234,3.371,1.3835,9.0312,3.5629,-0.0236,-0.5078,-0.1919,-0.0895,0.0383,-0.0021,-1.25,-30.25,25.5,162.75,-67.11,-21.68,56060,2015-10-08 15:49:12:361,0
1.3791,8.5425,3.4093,1.3893,9.0341,3.5533,-0.0102,-0.4916,-0.144,0.0128,0.0043,-0.1278,-1,-31.25,25.25,163.28,-67.19,-21.18,56160,2015-10-08 15:49:12:461,0
1.3791,8.5808,3.3519,1.4014,9.0365,3.5423,-0.0224,-0.4557,-0.1904,0.0724,0.0064,-0.0724,-1.5,-30.25,25,161.45,-67.04,-21.2,56260,2015-10-08 15:49:12:561,0
1.3599,8.5425,3.3136,1.4241,9.0222,3.5695,-0.0469,-0.4864,-0.2077,-0.1854,0.0064,0.081,-2,-31.75,25.25,161.8,-67.08,-21.27,56360,2015-10-08 15:49:12:661,0
1.3791,8.5234,3.2944,1.4461,9.0196,3.5674,-0.0219,-0.5026,-0.2097,-0.0597,0.0213,0.1726,-1,-31,25.25,161.16,-66.93,-21.75,56460,2015-10-08 15:49:12:761,0
1.3408,8.5425,3.3136,1.4592,9.0289,3.5384,-0.1157,-0.4848,-0.23,0.0405,-0.0447,0.0064,-0.75,-29.25,25,162.21,-66.95,-22.18,56560,2015-10-08 15:49:12:861,0
1.3408,8.5425,3.2944,1.4215,9.0293,3.5527,-0.074,-0.4834,-0.2695,-0.1214,0.0682,-0.0575,-1.75,-29.5,25.25,160.54,-67.09,-22.15,56660,2015-10-08 15:49:12:961,0
1.3982,8.5042,3.4285,1.3971,9.0298,3.5611,-0.0084,-0.5233,-0.1346,0.0639,0.0533,-0.1321,-2,-30.25,25.5,161.23,-66.95,-21.37,56760,2015-10-08 15:49:13:061,0
1.3791,8.4851,3.371,1.3786,9.0409,3.5402,5.0000E-04,-0.5558,-0.1691,0.0085,0.0852,-0.0362,-2.25,-30.5,26,162.79,-67.04,-21.42,56860,2015-10-08 15:49:13:161,0
1.3599,8.5234,3.2753,1.3969,9.047,3.5173,0.0396,-0.4662,-0.1654,-0.0383,-0.0128,0.13,-2.25,-30,26,161.34,-67.21,-21.28,56960,2015-10-08 15:49:13:261,0
1.3408,8.5425,3.3327,1.4064,9.0369,3.5393,-0.0656,-0.4944,-0.2066,0.1214,0.0959,0.0043,-2.25,-32,26,161.38,-67.15,-21.67,57060,2015-10-08 15:49:13:361,0
1.3599,8.5617,3.3136,1.3919,9.0243,3.577,-0.032,-0.4627,-0.2634,-0.0703,-0.0362,0.0021,-2.25,-32,25.75,161.6,-67.03,-21.39,57160,2015-10-08 15:49:13:461,0
1.3408,8.5234,3.371,1.3757,9.0138,3.6097,-0.0135,-0.49,-0.2598,-0.0234,0.0383,0.0469,-2.25,-31.25,25.75,163.17,-66.81,-21.19,57261,2015-10-08 15:49:13:562,0
1.3982,8.4276,3.5626,1.3833,8.996,3.651,-0.009,-0.5525,-0.0784,-0.1108,0.0256,0.0064,-2,-30.75,24.75,162.02,-66.73,-20.76,57360,2015-10-08 15:49:13:661,0
1.4174,8.5425,3.3136,1.4184,8.9859,3.6624,-0.0641,-0.4252,-0.4091,0.0597,-0.0639,-0.0149,-0.75,-30.75,24.75,163.6,-66.37,-20.91,57460,2015-10-08 15:49:13:761,0
1.2641,8.4276,3.4668,1.4233,8.974,3.6895,-0.1622,-0.5452,-0.2245,0.017,0.0426,-0.0341,-1.25,-31.25,24.25,163.51,-66.2,-21.32,57560,2015-10-08 15:49:13:861,0
1.4748,8.4659,3.486,1.4705,8.9773,3.6629,0.0044,-0.5114,-0.1769,0.0724,0.0618,-0.0618,-0.75,-30.5,24.5,163.04,-66.29,-21.46,57660,2015-10-08 15:49:13:961,0
1.1301,8.6,3.3519,1.4402,8.9844,3.6573,-0.2646,-0.39,-0.3596,0.0192,0.1236,0.0362,-1.5,-29.5,24.25,162.89,-66.38,-21.61,57760,2015-10-08 15:49:14:061,0
1.6281,8.4659,3.4093,1.3974,8.9915,3.6565,0.0885,-0.4498,-0.3643,0.0277,0.0107,-0.1193,-1.5,-29.5,24.5,163.2,-66.47,-20.91,57860,2015-10-08 15:49:14:161,0
1.2258,8.4467,3.6583,1.3479,8.9876,3.6846,-0.0915,-0.5059,-0.2069,0.0021,0.0703,-0.0426,-1.75,-31.5,25.25,162.41,-66.49,-20.27,57960,2015-10-08 15:49:14:261,0
1.3408,8.6,3.237,1.385,9.0091,3.6178,-0.07,-0.3047,-0.4763,0.0405,-0.0107,0.0831,-1.5,-31,25,163.56,-66.61,-20.91,58060,2015-10-08 15:49:14:361,0
1.3024,8.5617,3.3136,1.4131,9.0127,3.5978,-0.1316,-0.3957,-0.2784,-0.098,-0.0724,0.0128,-1.75,-31.5,25.25,161.47,-66.81,-21.52,58160,2015-10-08 15:49:14:461,0
1.3216,8.5617,3.3327,1.3935,9.0199,3.5876,-0.0144,-0.4773,-0.3315,-0.0746,0.0405,-0.0469,-2.75,-31.5,26,160.03,-66.81,-21.44,58260,2015-10-08 15:49:14:561,0
1.4365,8.5234,3.4093,1.403,9.006,3.6185,0.0336,-0.4827,-0.2091,0.0085,-0.0064,0.017,-1.25,-31.25,25.75,161.56,-66.77,-21.24,58360,2015-10-08 15:49:14:661,0
1.3599,8.5234,3.2753,1.406,9.0163,3.5916,-0.0461,-0.493,-0.3163,-0.0107,0.0383,0.098,-2.75,-29.75,25.75,161.5,-66.68,-21.34,58460,2015-10-08 15:49:14:761,0
1.3216,8.5425,3.3327,1.4257,9.0177,3.5805,-0.1041,-0.4751,-0.2477,0.1278,0.0383,-0.0362,-1.75,-29,25,161.12,-66.84,-21.54,58560,2015-10-08 15:49:14:861,0
1.3791,8.5425,3.3519,1.389,9.0342,3.5531,-0.0099,-0.4917,-0.2012,0.0639,0.0064,0.0618,-1.25,-30,25.75,162.83,-67.11,-21.35,58660,2015-10-08 15:49:14:961,0
1.3982,8.5234,3.3902,1.3928,9.0315,3.5584,0.0054,-0.5081,-0.1682,-0.0937,0.1257,-0.0511,-0.5,-30.75,25.5,164.56,-67.05,-21.42,58760,2015-10-08 15:49:15:061,0
1.3982,8.5234,3.371,1.4341,9.0133,3.5882,-0.0359,-0.4899,-0.2171,0.0213,-0.0128,0.017,-1.5,-31.5,24.75,163.12,-67.02,-21.44,58860,2015-10-08 15:49:15:161,0
1.3599,8.5425,3.3327,1.4367,9.0147,3.5836,-0.0576,-0.4722,-0.1934,0.1236,0.1342,0.049,-1.5,-31.5,25.5,162.75,-66.83,-21.77,58960,2015-10-08 15:49:15:261,0
1.3982,8.5234,3.3327,1.4421,9.0275,3.5491,-0.0189,-0.5269,-0.2094,-0.0362,-0.0064,0.0405,-1.5,-31,25,162.71,-66.9,-22.05,59060,2015-10-08 15:49:15:361,0
1.3791,8.5425,3.3136,1.4597,9.0331,3.5273,-0.0975,-0.4719,-0.1562,-0.0021,0.017,0.0234,-1.5,-30.75,25.25,161.15,-67.03,-22.21,59160,2015-10-08 15:49:15:461,0
1.3791,8.5425,3.3136,1.4872,9.0341,3.5134,-0.1136,-0.5106,-0.1596,-0.0959,0.0746,0.0256,-0.75,-30.75,25.25,162.04,-67.11,-22.94,59260,2015-10-08 15:49:15:561,0
1.3982,8.5234,3.371,1.5153,9.0249,3.5249,-0.1171,-0.5016,-0.1538,0.0341,-0.0298,-0.0021,-1.5,-31,25,161.81,-66.95,-23.31,59360,2015-10-08 15:49:15:661,0
1.3982,8.5234,3.4093,1.5505,9.0186,3.5259,-0.1523,-0.4952,-0.1166,0.0447,0.0085,-0.0533,-2.5,-31.25,25.25,160.1,-66.88,-23.43,59460,2015-10-08 15:49:15:761,0
1.3791,8.5234,3.4477,1.5393,9.0238,3.5175,-0.1794,-0.5004,-0.2039,-0.1065,-0.0341,0.0128,-1.25,-32,25,161.78,-66.95,-23.63,59560,2015-10-08 15:49:15:861,0
1.3982,8.5234,3.3327,1.517,9.0162,3.5464,-0.1188,-0.4928,-0.252,0.0511,-0.0128,0.032,-1,-31.75,25,162.14,-66.84,-23.16,59660,2015-10-08 15:49:15:961,0
1.3408,8.5234,3.3327,1.5397,9.0187,3.5302,-0.1989,-0.4954,-0.1974,-0.0192,0.1427,0.049,-1,-33,25.5,161.85,-66.88,-23.56,59760,2015-10-08 15:49:16:061,0
1.3982,8.5234,3.3519,1.5527,9.0044,3.561,-0.1545,-0.481,-0.2091,0.0639,0.1236,-0.017,-0.75,-31.25,25.5,161.5,-66.66,-23.56,59860,2015-10-08 15:49:16:161,0
1.3599,8.5425,3.3519,1.5482,9.0157,3.5341,-0.1883,-0.4732,-0.1822,0.0021,0.0959,0.0724,-1.25,-31.25,26.5,161.22,-66.83,-23.66,59959,2015-10-08 15:49:16:260,0
1.3599,8.5425,3.3327,1.5711,9.0154,3.5248,-0.2112,-0.4729,-0.1921,-0.0511,-0.0362,-0.017,-1.25,-30.25,26,161.22,-66.79,-23.64,60060,2015-10-08 15:49:16:361,0
1.3791,8.5234,3.371,1.568,9.0206,3.5128,-0.1943,-0.4974,-0.1773,0.0341,0.0213,0.0703,-1.5,-30.5,25.5,162.53,-66.83,-24.02,60160,2015-10-08 15:49:16:461,0
1.3982,8.5234,3.3136,1.5656,9.019,3.5181,-0.1674,-0.4956,-0.2045,-0.0256,0.0767,-0.0511,-2.25,-29.5,25.75,159.11,-66.88,-23.99,60260,2015-10-08 15:49:16:561,0
1.3408,8.5425,3.3136,1.5511,9.0188,3.5249,-0.172,-0.4763,-0.1731,0.0277,0.0426,0.0192,-2.25,-29.75,25.25,159.67,-66.79,-23.75,60360,2015-10-08 15:49:16:661,0
1.4174,8.5234,3.371,1.5595,9.0277,3.4985,-0.1613,-0.5235,-0.0317,0.032,0.0192,0.0383,-2.25,-30.5,25.75,159.41,-66.95,-23.88,60460,2015-10-08 15:49:16:761,0
1.3791,8.5234,3.3327,1.5725,9.0221,3.5071,-0.1934,-0.4987,-0.1743,-0.0362,0.1065,0.1214,-2.25,-30.5,24.5,159.27,-66.9,-24.27,60560,2015-10-08 15:49:16:861,0
1.4174,8.5234,3.3519,1.5709,9.0284,3.4914,-0.1918,-0.4859,-0.1204,0.032,-0.1214,-0.0043,-0.5,-30.5,25,162.76,-66.89,-24,60660,2015-10-08 15:49:16:961,0
1.3408,8.5234,3.3902,1.574,9.0277,3.4919,-0.2332,-0.5043,-0.1018,0.0533,0.0021,0.0383,-1.75,-32.25,25.75,159.41,-67.03,-24.47,60760,2015-10-08 15:49:17:061,0
1.3982,8.5617,3.371,1.5377,9.0298,3.5026,-0.1395,-0.4682,-0.1315,0.0362,-0.066,-0.0383,-2.5,-31.25,25.5,159.53,-67.03,-24,60861,2015-10-08 15:49:17:162,0
1.3982,8.5234,3.3902,1.5364,9.0277,3.5087,-0.1382,-0.5043,-0.1185,-0.098,-0.0234,-0.0107,-1.75,-32.75,25.25,160.33,-67.05,-23.68,60959,2015-10-08 15:49:17:260,0
1.3791,8.5425,3.4285,1.5513,9.028,3.5013,-0.1723,-0.4855,-0.0728,-0.081,0.0256,-0.0128,-1.5,-31.5,25.5,161.2,-67.01,-23.9,61060,2015-10-08 15:49:17:361,0
1.3599,8.5042,3.3136,1.5146,9.0288,3.5152,-0.1547,-0.4863,-0.1824,0.0533,0.0469,-0.032,-1.75,-30.5,25.5,159.77,-67.02,-23.36,61160,2015-10-08 15:49:17:461,0
1.3982,8.5425,3.3327,1.5176,9.0368,3.4933,-0.1386,-0.5135,-0.1414,-0.0724,0.032,-0.0107,-2.5,-31.5,25.5,159.74,-67.09,-23.68,61260,2015-10-08 15:49:17:561,0
1.3982,8.5234,3.371,1.4923,9.0376,3.5021,-0.075,-0.5334,-0.1694,-0.0447,0.032,-0.0533,-1.75,-31,25.75,160.03,-67.19,-23.26,61360,2015-10-08 15:49:17:661,0
1.3216,8.5617,3.3902,1.4938,9.0266,3.5297,-0.153,-0.4841,-0.2161,0.081,-0.0128,0.0085,-1.25,-30.5,26.25,161.56,-67.16,-23.08,61460,2015-10-08 15:49:17:761,0
1.3599,8.5234,3.2561,1.4764,9.0394,3.5042,-0.1122,-0.5159,-0.2502,-0.032,0.017,-0.0874,-1.5,-29.25,26.25,161.37,-67.14,-23.07,61560,2015-10-08 15:49:17:861,0
1.3599,8.5617,3.371,1.4207,9.0471,3.5074,-0.0608,-0.4854,-0.1364,-0.0107,0.0064,0.0831,-0.75,-30.25,26,162.04,-67.26,-22.4,61660,2015-10-08 15:49:17:961,0
1.3599,8.5425,3.4285,1.433,9.046,3.5053,-0.0731,-0.5035,-0.0768,0.0554,-0.0128,0.0085,-1.5,-29.25,26.5,161.97,-67.31,-22.01,61760,2015-10-08 15:49:18:061,0
1.3791,8.5425,3.4093,1.4549,9.0509,3.4834,-0.072,-0.5082,-0.1529,-0.0405,-0.0767,-0.0213,-1.5,-32,25.75,162.21,-67.36,-22.67,61860,2015-10-08 15:49:18:161,0
1.3216,8.5425,3.3519,1.4427,9.057,3.4727,-0.1211,-0.5145,-0.1208,-0.0107,-0.032,0.0618,-1.75,-32,25.75,160.69,-67.45,-22.56,61960,2015-10-08 15:49:18:261,0
1.4174,8.5425,3.371,1.4552,9.0555,3.4714,-0.0545,-0.5091,-0.1307,0.0298,0.0085,-0.0064,-1.75,-32.25,24.75,160.7,-67.43,-22.74,62060,2015-10-08 15:49:18:361,0
1.3599,8.5617,3.3519,1.478,9.0487,3.4795,-0.1181,-0.487,-0.1276,-0.0234,-0.0426,-0.0298,-1.75,-31,25.25,160.31,-67.33,-23.02,62160,2015-10-08 15:49:18:461,0
1.3791,8.5234,3.3519,1.4727,9.0418,3.4997,-0.0937,-0.5184,-0.1478,-0.0362,-0.0149,0.032,-1.75,-31.25,25.5,160.34,-67.22,-22.82,62260,2015-10-08 15:49:18:561,0
1.3599,8.5617,3.2753,1.4494,9.0406,3.5125,-0.0895,-0.498,-0.1798,0.0703,-0.0298,-0.0447,-2.25,-30.25,25.5,160.42,-67.2,-22.42,62360,2015-10-08 15:49:18:661,0
1.3791,8.5425,3.2561,1.4652,9.0404,3.5063,-0.085,-0.4948,-0.2203,0.0192,0.0405,0.081,-1.25,-30.75,26,162.04,-67.2,-22.68,62460,2015-10-08 15:49:18:761,0
1.3791,8.5617,3.3136,1.4666,9.0396,3.5078,-0.0825,-0.4929,-0.2072,0.0639,-0.0703,-0.1193,-1,-30.75,25.25,162.38,-67.13,-22.46,62560,2015-10-08 15:49:18:861,0
1.3408,8.5617,3.3519,1.487,9.0391,3.5005,-0.1232,-0.4602,-0.222,0.0064,-0.0703,0.0703,-1.75,-30.75,24.75,160.45,-67.18,-22.86,62660,2015-10-08 15:49:18:961,0
1.3791,8.5617,3.3519,1.4761,9.032,3.5233,-0.129,-0.4881,-0.1394,0.0277,0.1513,-0.0916,-2,-29.75,25.75,160.22,-67.07,-22.73,62760,2015-10-08 15:49:19:061,0
1.3791,8.5234,3.2944,1.4606,9.0308,3.5329,-0.1007,-0.5075,-0.181,-0.0107,-0.0469,-0.0618,-1.25,-30.25,25.5,162.03,-67.06,-22.46,62860,2015-10-08 15:49:19:161,0
1.3982,8.5234,3.3902,1.4754,9.0282,3.5334,-0.0772,-0.5049,-0.1432,-0.0426,-0.0874,0.115,-1.75,-30.25,25.25,161.98,-67.13,-22.51,62960,2015-10-08 15:49:19:261,0
1.3408,8.5617,3.4477,1.4747,9.029,3.5318,-0.0992,-0.3749,-0.2272,0.1023,0.0767,-0.1662,-2.25,-30.5,25.25,160.21,-67.05,-22.92,63060,2015-10-08 15:49:19:361,0
1.3216,8.5617,3.2944,1.4558,9.0438,3.5016,-0.1312,-0.4844,-0.2408,-0.1044,-0.0021,0.1214,-1.25,-30.5,25.25,160.07,-67.18,-22.61,63160,2015-10-08 15:49:19:461,0
1.3599,8.5425,3.3327,1.4922,9.0336,3.5125,-0.1522,-0.5102,-0.1606,-0.1023,-0.0533,0.049,-1.75,-30,25,160.14,-67.1,-23.02,63260,2015-10-08 15:49:19:561,0
1.3408,8.5425,3.2561,1.5035,9.0251,3.5296,-0.1627,-0.4826,-0.2735,0.0383,-0.017,-0.1065,-2,-31,24.75,160.43,-66.93,-22.95,63360,2015-10-08 15:49:19:661,0
1.3024,8.5425,3.3136,1.4844,9.034,3.5149,-0.1581,-0.4742,-0.2176,-0.0298,-0.0085,-0.0575,-2.25,-30,25.75,160,-67.1,-23.02,63460,2015-10-08 15:49:19:761,0
1.3791,8.5234,3.3519,1.4789,9.0359,3.5123,-0.1214,-0.4963,-0.1709,0.1364,0.0085,-0.0298,-1.5,-30.75,25.25,161.76,-67.09,-22.82,63560,2015-10-08 15:49:19:861,0
1.3791,8.5425,3.2944,1.4661,9.0312,3.5297,-0.087,-0.4887,-0.2353,0.0511,0.1534,0.0618,-2.25,-31.5,25,162.16,-67.14,-22.77,63660,2015-10-08 15:49:19:961,0
1.3791,8.5425,3.3327,1.4954,9.0484,3.473,-0.1163,-0.5058,-0.1403,-0.0256,-0.0085,0.13,-1.25,-30.25,25,161.73,-67.37,-23.03,63760,2015-10-08 15:49:20:061,0
1.3599,8.5425,3.3327,1.4764,9.0533,3.4682,-0.1165,-0.5108,-0.1355,0.0852,-0.0767,-0.0447,-2.75,-29,25,158.18,-67.4,-23.01,63860,2015-10-08 15:49:20:161,0
1.4174,8.5425,3.371,1.4526,9.0606,3.4592,-0.0352,-0.5181,-0.0881,0.0788,0.1044,0.0064,-1.75,-31,25.75,160.37,-67.47,-22.71,63960,2015-10-08 15:49:20:261,0
1.3599,8.5617,3.3136,1.4346,9.0725,3.4356,-0.0747,-0.5108,-0.122,0.066,0.0021,0.0447,-1.5,-31.5,25.75,161.97,-67.69,-22.66,64060,2015-10-08 15:49:20:361,0
1.3216,8.6,3.2753,1.4153,9.073,3.4421,-0.0937,-0.473,-0.1669,0.0639,-0.0682,-0.0192,-1.25,-30,25.25,162.24,-67.65,-22.27,64160,2015-10-08 15:49:20:461,0
1.3982,8.5234,3.3902,1.4222,9.0734,3.4381,-0.0623,-0.5309,-0.1437,-0.0085,-0.0746,-0.0064,-2,-29.5,25.25,160.23,-67.7,-22.43,64260,2015-10-08 15:49:20:561,0
1.3599,8.5234,3.3519,1.4239,9.0688,3.4496,-0.0257,-0.5646,-0.1168,0.0405,-0.0533,-0.0277,-2,-30,25.25,160.47,-67.7,-22.39,64360,2015-10-08 15:49:20:661,0
1.3791,8.5042,3.3902,1.4251,9.0653,3.4582,-0.0652,-0.5228,-0.0489,-0.0149,-0.0639,-0.0597,-1.25,-30.25,25,162.31,-67.54,-22.45,64460,2015-10-08 15:49:20:761,0
1.3791,8.5042,3.4477,1.415,9.0569,3.4842,-0.036,-0.5336,-0.1132,-0.0213,-0.0447,-0.0213,-2,-31.5,25.25,162.19,-67.56,-22.35,64560,2015-10-08 15:49:20:861,0
1.3599,8.5617,3.4285,1.4116,9.0594,3.4793,-0.0517,-0.5168,-0.1849,0.0874,0.0469,0.0788,-2,-30.75,25.5,160.82,-67.49,-22.08,64660,2015-10-08 15:49:20:961,0
1.3599,8.5617,3.3327,1.4452,9.0582,3.4686,-0.0853,-0.4965,-0.1359,-0.1342,-0.0554,-0.017,-1,-31,24.75,162.18,-67.59,-22.63,64760,2015-10-08 15:49:21:061,0
1.3408,8.5425,3.3519,1.4407,9.0562,3.4755,-0.0999,-0.5137,-0.1236,0.0234,0.0618,-0.0703,-1.75,-30.75,26,160.52,-67.44,-22.51,64860,2015-10-08 15:49:21:161,0
1.3408,8.5425,3.371,1.4614,9.0367,3.5175,-0.1207,-0.4942,-0.1464,-0.1236,0.0085,0.0788,-1.5,-32.5,26,162.32,-67.14,-22.56,64960,2015-10-08 15:49:21:261,0
1.3599,8.5425,3.3519,1.4466,9.0444,3.5039,-0.0483,-0.5019,-0.1137,0.0256,-0.0554,0.066,-1.75,-31,25.75,160.54,-67.14,-22.56,65060,2015-10-08 15:49:21:361,0
1.3216,8.5808,3.3519,1.443,9.0389,3.5195,-0.1214,-0.5347,-0.1484,-0.0064,-0.0107,-0.0618,-1.5,-31,26,160.3,-67.31,-22.39,65160,2015-10-08 15:49:21:461,0
1.3408,8.5617,3.2944,1.4471,9.0371,3.5224,-0.068,-0.5137,-0.1322,-0.0234,0.0213,-0.147,-1.25,-31.5,25.75,162.18,-67.22,-22.47,65260,2015-10-08 15:49:21:561,0
1.3408,8.5234,3.3519,1.4358,9.0282,3.5498,-0.095,-0.4857,-0.1787,-0.0362,0.0362,-0.0298,-2,-30,25.5,160.74,-67.02,-22.02,65360,2015-10-08 15:49:21:661,0
1.2833,8.6191,3.371,1.4153,9.0341,3.5428,-0.132,-0.415,-0.1718,0.049,0.1257,0.066,-1,-30.5,25.5,162.52,-67.11,-21.78,65460,2015-10-08 15:49:21:761,0
1.3408,8.5425,3.3327,1.4288,9.0278,3.5535,-0.0686,-0.4882,-0.2326,0.0426,0.066,0.0213,-1,-29.75,25.75,162.44,-67.01,-21.9,65560,2015-10-08 15:49:21:861,0
1.3408,8.4276,3.2944,1.4353,9.032,3.5403,-0.0536,-0.4915,-0.1919,0.0383,0.1172,-0.1129,-2,-30.25,26.25,160.7,-67.07,-22.07,65660,2015-10-08 15:49:21:961,0
1.3599,8.5234,3.3136,1.413,9.0422,3.5232,-0.0493,-0.4763,-0.1453,-0.1236,0.0107,-0.0362,-1.25,-31.5,25.5,162.63,-67.23,-21.85,65760,2015-10-08 15:49:22:061,0
1.3408,8.5425,3.3327,1.4085,9.0217,3.5771,-0.0678,-0.4792,-0.2444,0.0107,-0.0149,0.0213,-1.5,-31.5,26,162.94,-66.92,-21.49,65860,2015-10-08 15:49:22:161,0
1.3982,8.5425,3.3519,1.4189,9.0194,3.5789,-0.0207,-0.4768,-0.227,0.0107,-0.1001,-0.049,-1,-30,26,162.66,-66.88,-21.63,65960,2015-10-08 15:49:22:261,0
1.3791,8.4851,3.3902,1.4261,9.0111,3.5969,-0.0577,-0.5023,-0.1755,0.0256,-0.0107,0.0298,-1.25,-30.5,26,162.68,-66.76,-21.63,66060,2015-10-08 15:49:22:361,0
1.3599,8.4467,3.62,1.4223,9.0031,3.6182,-0.0624,-0.5564,0.0018,0.032,0.0405,0.0383,-0.75,-32,25.5,160.92,-66.74,-22.13,66160,2015-10-08 15:49:22:461,0
1.3024,8.5234,3.1987,1.4234,9.0092,3.6026,-0.1401,-0.4667,-0.1358,-0.0959,0.0746,-0.0831,-1.75,-31.5,25,161.33,-66.71,-21.74,66260,2015-10-08 15:49:22:561,0
1.3408,8.5808,3.237,1.4318,9.0002,3.6217,-0.1102,-0.4194,-0.4039,0.0128,0.0852,-0.0639,-1,-31.25,25,163.1,-66.6,-21.57,66360,2015-10-08 15:49:22:661,0
1.2833,8.5234,3.371,1.44,9.002,3.6139,-0.1567,-0.4787,-0.2429,-0.0149,-0.017,-0.1129,-0.75,-30.75,25.75,163,-66.64,-21.7,66460,2015-10-08 15:49:22:761,0
1.2641,8.5234,3.4477,1.4342,9.0029,3.6141,-0.1063,-0.502,-0.1799,0.0362,-0.0362,0.066,-2,-30.75,25.5,161.29,-66.64,-21.65,66560,2015-10-08 15:49:22:861,0
1.3791,8.5234,3.4285,1.4242,9.0109,3.5981,-0.0775,-0.5036,-0.1146,-0.0383,-0.017,-0.0192,-1.25,-31.5,24.5,161.1,-66.69,-21.78,66660,2015-10-08 15:49:22:961,0
1.3024,8.5617,3.2944,1.4365,9.0069,3.6031,-0.1341,-0.4453,-0.3086,-0.0192,0.098,-0.0533,-1.25,-30.25,24,162.79,-66.72,-21.95,66759,2015-10-08 15:49:23:060,0
1.3408,8.5234,3.2944,1.4287,9.0037,3.6141,-0.0879,-0.4612,-0.2623,-0.032,-0.0043,-0.0362,-1.25,-30.75,24,163.05,-66.73,-21.86,66860,2015-10-08 15:49:23:161,0
1.3408,8.5234,3.237,1.4157,9.0023,3.6228,-0.075,-0.4789,-0.3858,-0.1065,0.0426,-0.0213,-2.5,-29,25.25,161.16,-66.65,-21.57,66960,2015-10-08 15:49:23:261,0
1.4174,8.5617,3.1603,1.3607,9.0176,3.6058,0.0437,-0.4408,-0.5336,0.0916,0.115,-0.1939,-1.5,-30.75,25.5,163.45,-66.64,-20.85,67060,2015-10-08 15:49:23:361,0
1.1301,8.5234,3.4093,1.3147,9.0298,3.5922,-0.1619,-0.6048,-0.1969,0.0149,-0.0554,-0.049,-1,-31.5,25.5,163.8,-67.01,-20.28,67160,2015-10-08 15:49:23:461,0
1.2067,8.4659,3.4477,1.3264,9.0427,3.5553,-0.1198,-0.5768,-0.1077,0.0618,0.0575,0.1065,-0.75,-32,25,164.1,-67.11,-20.29,67260,2015-10-08 15:49:23:561,0
1.3599,8.6383,3.237,1.3922,9.053,3.5036,-0.0323,-0.4147,-0.2666,-0.0746,-0.0256,-0.0234,-0.25,-31.75,25,165.58,-67.24,-20.46,67360,2015-10-08 15:49:23:661,0
1.3599,8.5617,3.237,1.3953,9.0639,3.474,-0.0354,-0.5023,-0.237,-0.1001,0.0234,-0.0639,-0.5,-30.5,25,162.9,-67.39,-21.67,67460,2015-10-08 15:49:23:761,0
1.3024,8.6191,3.1987,1.3599,9.0546,3.5121,-0.0546,-0.4947,-0.3293,0.0256,0.017,-0.0447,-0.75,-30.75,25.25,162.53,-67.56,-21.88,67560,2015-10-08 15:49:23:861,0
1.3216,8.5425,3.4285,1.3452,9.0587,3.5073,-0.0809,-0.4562,-0.1045,-0.0554,0.0724,0.0234,0.75,-31.75,25.25,164.88,-67.49,-20.88,67660,2015-10-08 15:49:23:961,0
1.3216,8.5617,3.3519,1.3557,9.0559,3.5104,-0.0767,-0.4562,-0.2211,-0.0021,0.0767,-0.1044,-0.25,-32,25.25,165.11,-67.48,-21.07,67760,2015-10-08 15:49:24:061,0
1.2641,8.5425,3.3902,1.3614,9.0495,3.5246,-0.0891,-0.5297,-0.1094,-0.0043,0.1577,0.0554,0.25,-31.5,25,165.14,-67.48,-20.75,67860,2015-10-08 15:49:24:161,0
1.3982,8.5234,3.4477,1.3925,9.0545,3.4998,0.0398,-0.5326,-0.0464,0.0831,0.049,0.0511,-0.5,-30,25.25,164.6,-67.25,-21.37,67960,2015-10-08 15:49:24:261,0
1.0534,8.7149,2.8922,1.4376,9.0846,3.402,-0.1543,-0.4655,-0.1267,0.2024,0.1044,-0.1406,-0.5,-30.25,25,163.54,-67.75,-22.73,68060,2015-10-08 15:49:24:361,0
1.5706,8.6383,3.0837,1.3639,9.0985,3.3953,0.2067,-0.4602,-0.3116,-0.2727,0.0831,-0.0256,-1.25,-31.5,25.75,163.76,-68.26,-22.31,68160,2015-10-08 15:49:24:461,0
1.0918,8.5234,3.4477,1.199,9.0511,3.5792,-0.1072,-0.5277,-0.1316,-0.2067,0.0107,-0.1619,-0.75,-31.5,25,164.3,-67.67,-19.65,68260,2015-10-08 15:49:24:561,0
0.7661,8.4659,3.4477,1.0254,9.0042,3.7475,-0.2592,-0.5383,-0.2999,-0.1513,-0.017,-0.0703,-0.5,-31.75,25,168.56,-66.94,-16.28,68360,2015-10-08 15:49:24:661,0
0.6895,8.4659,3.8116,0.9026,8.9547,3.8947,-0.1748,-0.508,-0.1405,-0.1023,0.0362,-0.0043,-0.5,-32.75,24.5,170.63,-66.05,-13.59,68460,2015-10-08 15:49:24:761,0
0.7278,8.5617,3.6583,0.852,8.9422,3.9346,-0.0667,-0.4572,-0.2571,-0.0959,-0.0064,0.0852,-0.75,-30,23.5,169.38,-65.9,-12.74,68560,2015-10-08 15:49:24:861,0
0.6895,8.4276,3.8499,0.781,8.9203,3.9986,-0.101,-0.4851,-0.1638,-0.0724,-0.017,0.066,-0.25,-30.5,23.25,171.99,-65.69,-11.75,68660,2015-10-08 15:49:24:961,0
0.6895,8.4467,3.9073,0.7807,8.9081,4.0257,-0.0911,-0.4614,-0.1184,-0.0511,0.0277,0.1704,0.25,-28.5,23,172.26,-65.28,-10.97,68760,2015-10-08 15:49:25:061,0
0.5938,8.4851,3.8499,0.7789,8.9121,4.0173,-0.1085,-0.4462,-0.2823,-0.0043,0.0703,0.1257,0.25,-30.75,23.25,172.46,-65.1,-11.12,68860,2015-10-08 15:49:25:161,0
0.9002,8.4659,3.7924,0.7968,8.9159,4.0052,0.1035,-0.45,-0.2128,0.0277,0.0021,0.1087,1,-29.25,23.75,173.7,-65.35,-11.29,68960,2015-10-08 15:49:25:261,0
0.7278,8.4276,3.9456,0.8002,8.9076,4.023,-0.0372,-0.4779,-0.158,-0.0234,-0.0852,0.0021,0.5,-29,23.75,173.83,-65.41,-11.34,69060,2015-10-08 15:49:25:361,0
0.7278,8.4467,3.7733,0.7902,8.906,4.0286,-0.0623,-0.4592,-0.2553,0.1065,-0.0362,0.0426,0.25,-29.5,23.5,172.23,-65.34,-10.98,69160,2015-10-08 15:49:25:461,0
0.747,8.4467,3.8499,0.7633,8.915,4.0138,-0.0193,-0.4703,-0.1779,0.0256,0.1534,0.0639,0.75,-31.5,24,173.91,-65.25,-11.1,69260,2015-10-08 15:49:25:561,0
0.7661,8.4467,3.8116,0.7607,8.9194,4.0046,0.0054,-0.4726,-0.193,0.1001,0.0469,0.0107,0.25,-30.75,23,172.68,-65.44,-10.76,69360,2015-10-08 15:49:25:661,0
0.747,8.4276,3.869,0.7351,8.9156,4.0178,0.0119,-0.488,-0.1487,-0.0128,0.0767,0.0128,0,-29,22.75,172.59,-65.47,-10.62,69460,2015-10-08 15:49:25:761,0
0.7661,8.4851,3.7733,0.7325,8.9152,4.019,0.0336,-0.4302,-0.2458,-0.0831,0.032,-0.0043,0.75,-29,23.75,174.38,-65.43,-10.32,69560,2015-10-08 15:49:25:861,0
0.7661,8.4276,3.8882,0.7176,8.9239,4.0023,0.0485,-0.4964,-0.1142,-0.0405,0.0405,0.1023,0.25,-28.25,23.75,172.7,-65.44,-10.18,69660,2015-10-08 15:49:25:961,0
0.6512,8.4659,3.9265,0.7185,8.916,4.0198,-0.0673,-0.4501,-0.0933,-0.1193,-0.0554,-0.0597,0,-29.25,23,172.82,-65.53,-10.16,69761,2015-10-08 15:49:26:062,0
0.7087,8.4276,3.9265,0.7527,8.9021,4.0443,-0.044,-0.4745,-0.1178,0.1364,0.0682,0.0128,1.5,-29,23,176.12,-65.2,-10.54,69860,2015-10-08 15:49:26:161,0
0.7278,8.4084,3.9456,0.7436,8.9,4.0507,-0.0158,-0.4915,-0.105,0.0213,0.1129,0.0213,0.75,-29.25,23,174.35,-65.32,-10.6,69960,2015-10-08 15:49:26:261,0
0.6895,8.4276,3.869,0.726,8.9061,4.0405,-0.0184,-0.4834,-0.1411,-0.0703,0.0703,0.0426,-0.25,-30.75,22.5,173.04,-65.29,-10.24,70060,2015-10-08 15:49:26:361,0
0.7087,8.4084,3.9456,0.7225,8.9026,4.0488,-0.0366,-0.4985,-0.2078,-0.0405,0.0533,0.0341,0.25,-28.75,22,174.75,-65.23,-10.27,70160,2015-10-08 15:49:26:461,0
0.7087,8.4276,3.8499,0.7059,8.8932,4.0721,-0.0082,-0.4649,-0.1869,0.049,-0.0426,0.0916,0.5,-29.75,22.5,174.96,-65.07,-9.83,70260,2015-10-08 15:49:26:561,0
0.7087,8.4467,3.7924,0.7349,8.9033,4.0449,-0.0767,-0.441,-0.1727,-0.017,0.0341,0.049,1.5,-28.75,22.25,176.5,-65.21,-10.3,70360,2015-10-08 15:49:26:661,0
0.7278,8.4467,3.8307,0.7275,8.8904,4.0746,-0.0161,-0.4928,-0.2015,0.0256,-0.0234,-0.1406,0,-28.25,22.5,172.87,-65.24,-10.11,70460,2015-10-08 15:49:26:761,0
0.6321,8.3893,4.0031,0.7229,8.8891,4.0782,-0.0483,-0.46,-0.1941,-0.0426,-0.0213,0.0874,0,-27.75,23.5,172.96,-65.04,-9.85,70560,2015-10-08 15:49:26:861,0
0.7278,8.4276,3.7541,0.7249,8.902,4.0495,0.0029,-0.4744,-0.2954,-0.2024,0.0234,-0.0788,0,-28.5,23.75,172.74,-65.2,-10.15,70660,2015-10-08 15:49:26:961,0
0.6895,8.4659,3.7733,0.7614,8.8966,4.0549,-0.0719,-0.4307,-0.2816,-0.032,-0.017,-0.1683,-0.75,-30,23.5,172.65,-65.05,-10.28,70760,2015-10-08 15:49:27:061,0
0.747,8.4276,3.8307,0.7384,8.8861,4.0821,0.0086,-0.4585,-0.2513,-0.1172,-0.017,-0.0469,0,-29.25,23.5,172.77,-64.98,-10.25,70860,2015-10-08 15:49:27:161,0
0.6895,8.4276,3.9073,0.7772,8.888,4.0705,-0.0877,-0.4605,-0.1632,0.0213,-0.0192,0.0192,0,-28.25,23.25,172.51,-65.02,-10.65,70960,2015-10-08 15:49:27:261,0
0.6704,8.4467,3.7541,0.8251,8.8898,4.0573,-0.1551,-0.4423,-0.2472,0.0383,-0.0341,0.0021,0,-29,23.5,173.84,-64.97,-11.12,71060,2015-10-08 15:49:27:361,0
0.6895,8.4276,3.8307,0.8207,8.8881,4.0618,-0.1311,-0.4605,-0.2311,-0.0724,-0.017,0.1214,0.75,-30.5,23.5,173.7,-65,-11.42,71160,2015-10-08 15:49:27:461,0
0.6321,8.4276,3.9648,0.8246,8.8724,4.0952,-0.1925,-0.4448,-0.1304,-0.0064,0.0575,-0.1747,0.25,-28.75,23.5,173.48,-64.92,-11.63,71259,2015-10-08 15:49:27:560,0
0.7087,8.4276,3.8116,0.7929,8.8834,4.0776,-0.1159,-0.4392,-0.1659,-0.081,0.0639,-0.0298,0,-29.75,23,172.46,-64.94,-11,71360,2015-10-08 15:49:27:661,0
0.6704,8.4084,3.8499,0.7893,8.885,4.0749,-0.1115,-0.478,-0.2425,-0.0618,-0.0234,0.017,0,-30,23,172.49,-64.96,-10.96,71460,2015-10-08 15:49:27:761,0
0.6895,8.4084,3.869,0.7688,8.8929,4.0616,-0.0237,-0.4735,-0.082,0.0831,0.0788,-0.0767,1,-29.5,22.5,174.28,-65.07,-10.72,71560,2015-10-08 15:49:27:861,0
0.7278,8.3893,3.9456,0.7736,8.9109,4.0209,-0.042,-0.4979,-0.1973,-0.0618,-0.017,0.0447,-0.25,-29.75,22.5,172.51,-65.32,-10.89,71660,2015-10-08 15:49:27:961,0
0.747,8.4084,3.869,0.8022,8.8999,4.0396,-0.0317,-0.4866,-0.1631,-0.0234,0.0064,0.0639,1.5,-28.25,22.5,175.59,-65.19,-11.22,71760,2015-10-08 15:49:28:061,0
0.7087,8.4467,3.8499,0.8107,8.8933,4.0525,-0.0829,-0.4657,-0.1835,-0.0021,0.0064,0.1065,0.25,-30.75,22.5,172.19,-65.17,-11.23,71860,2015-10-08 15:49:28:161,0
0.7087,8.4276,3.8116,0.8164,8.8859,4.0674,-0.1077,-0.4584,-0.2176,-0.0064,0.0298,0.0959,1.25,-30,21.75,174.12,-65.08,-11.31,71960,2015-10-08 15:49:28:261,0
0.7278,8.4467,3.9265,0.8134,8.8743,4.0933,-0.0856,-0.4659,-0.1476,0.1129,0.0298,-0.1193,0.25,-30,23.25,172.27,-64.87,-11.29,72060,2015-10-08 15:49:28:361,0
0.6512,8.3893,3.9073,0.7815,8.8756,4.0967,-0.1303,-0.4863,-0.1894,-0.0874,-0.0469,-0.0447,0,-28.75,23.25,172.28,-64.95,-10.94,72160,2015-10-08 15:49:28:461,0
0.7087,8.4084,3.9073,0.7518,8.8959,4.0581,-0.0387,-0.4833,-0.1991,0.0874,0.0554,-0.0128,0.25,-29.5,23.25,172.45,-64.95,-10.88,72260,2015-10-08 15:49:28:561,0
0.6895,8.4084,3.8499,0.7575,8.902,4.0436,-0.0679,-0.4936,-0.1937,-0.0724,-0.0554,0.0149,0.5,-30.5,23.25,172.79,-65.11,-10.5,72360,2015-10-08 15:49:28:661,0
0.6895,8.4276,3.8116,0.7492,8.8978,4.0543,-0.0597,-0.4702,-0.2428,0.0639,-0.0916,0.0831,0.75,-30.25,23.5,174.28,-65.17,-10.58,72460,2015-10-08 15:49:28:761,0
0.6512,8.3893,3.8882,0.7526,8.892,4.0664,-0.1013,-0.5027,-0.1783,-0.0043,-0.0533,0.0085,0.5,-31.25,23.5,174.49,-65.09,-10.37,72560,2015-10-08 15:49:28:861,0
0.6704,8.3893,3.869,0.7552,8.8918,4.0665,-0.0848,-0.4834,-0.1591,-0.0405,0.0852,0.049,1.25,-30,23.25,174.4,-65.08,-10.65,72660,2015-10-08 15:49:28:961,0
0.6512,8.4084,3.9265,0.7298,8.8901,4.0748,-0.0786,-0.4817,-0.1483,-0.1172,0.0426,0.0192,0,-30.5,23.25,172.92,-65.05,-10.32,72760,2015-10-08 15:49:29:061,0
0.6704,8.4084,3.8499,0.7074,8.892,4.0745,-0.0371,-0.5027,-0.2246,0.017,0.0128,0.0447,1.25,-29.5,23.5,174.49,-65.1,-10.19,72860,2015-10-08 15:49:29:161,0
0.6512,8.4084,3.9456,0.6918,8.8835,4.0958,-0.0598,-0.4942,-0.1693,-0.115,0.1321,-0.0256,1.25,-30.5,22.75,176.65,-65.06,-9.85,72960,2015-10-08 15:49:29:261,0
0.6704,8.4276,3.8882,0.6986,8.902,4.0542,-0.0282,-0.4744,-0.166,0.0107,0.0639,0.0937,0.75,-29,22.25,175.18,-65.12,-9.65,73062,2015-10-08 15:49:29:363,0
0.6512,8.4467,3.8116,0.7371,8.9031,4.045,-0.0679,-0.46,-0.1521,-0.0469,-0.1364,0.0767,1,-29.5,23,174.77,-65.19,-10,73160,2015-10-08 15:49:29:461,0
0.6512,8.4276,3.8882,0.7093,8.8956,4.0664,-0.0421,-0.4886,-0.1361,-0.0107,-0.0064,-0.0341,0.5,-30.75,22.75,174.61,-65.21,-10.33,73260,2015-10-08 15:49:29:561,0
0.6129,8.4084,3.8882,0.6753,8.8977,4.0676,-0.0624,-0.4893,-0.1794,0.0639,0.0298,-0.0618,0.5,-31,22.5,174.91,-65.11,-9.89,73360,2015-10-08 15:49:29:661,0
0.6704,8.4084,3.8882,0.7211,8.8946,4.0665,-0.0507,-0.4862,-0.1783,-0.1364,0.0085,0.0362,0.75,-29.75,22,174.98,-65.18,-10.04,73460,2015-10-08 15:49:29:761,0
0.6129,8.4084,3.9073,0.7213,8.8777,4.1032,-0.1182,-0.4517,-0.2324,-0.0192,-0.049,0.0746,1,-30.5,22.5,174.9,-64.89,-9.92,73560,2015-10-08 15:49:29:861,0
0.6129,8.4276,3.9456,0.7243,8.8824,4.0925,-0.0889,-0.4779,-0.2346,-0.0298,0.0192,0.049,0.25,-29.75,23.25,173.06,-64.89,-10,73660,2015-10-08 15:49:29:961,0
0.6704,8.4084,3.9073,0.7311,8.8798,4.0969,-0.0607,-0.4714,-0.1896,0.0895,0.0511,-0.0788,0.75,-29.5,23.75,173,-64.96,-10.05,73760,2015-10-08 15:49:30:061,0
0.6321,8.4084,3.869,0.6938,8.8783,4.1068,-0.0617,-0.4698,-0.2377,0.0128,0.1449,0.0085,0.75,-29.75,23.5,174.92,-64.9,-9.67,73860,2015-10-08 15:49:30:161,0
0.6321,8.4276,3.9265,0.6843,8.8843,4.0952,-0.0522,-0.4567,-0.1687,0.032,0.017,0.0341,2,-28.75,22.75,176.76,-64.89,-9.63,73960,2015-10-08 15:49:30:261,0
0.6129,8.4276,3.9456,0.6903,8.8855,4.0917,-0.0774,-0.4579,-0.1461,0.0192,0.0682,0.0916,1.5,-29.5,23,176.8,-64.97,-9.58,74062,2015-10-08 15:49:30:363,0
0.6321,8.4084,3.869,0.6879,8.8765,4.1115,-0.0558,-0.4681,-0.2425,-0.1108,0.0043,0.0149,1.25,-29.25,23,175.13,-65.01,-9.49,74160,2015-10-08 15:49:30:461,0
0.5746,8.4276,3.8882,0.6836,8.8746,4.1163,-0.109,-0.447,-0.2281,-0.1555,0.0107,0.0724,2.75,-29,23.75,178.29,-64.9,-9.55,74260,2015-10-08 15:49:30:561,0
0.6512,8.4084,3.869,0.6596,8.8768,4.1155,-0.0084,-0.4684,-0.2465,0.0554,-0.0128,0.0405,1.25,-31,23.5,175.26,-64.86,-9.28,74360,2015-10-08 15:49:30:661,0
0.6512,8.4276,3.9265,0.674,8.8818,4.1025,-0.0529,-0.4728,-0.2327,-0.0554,0.1214,-0.0511,1.25,-28.5,23.75,176.84,-64.85,-9.35,74460,2015-10-08 15:49:30:761,0
0.6321,8.4084,3.869,0.6647,8.8752,4.1183,-0.0341,-0.4459,-0.2335,0.0213,-0.049,-0.0341,0.25,-29.75,23.5,173.61,-64.81,-9.18,74560,2015-10-08 15:49:30:861,0
0.6129,8.4276,3.9265,0.6538,8.8766,4.1169,-0.0468,-0.4504,-0.1865,0.0533,-0.0533,-0.0703,0.75,-30,22.75,175.57,-64.85,-8.95,74660,2015-10-08 15:49:30:961,0
0.6321,8.4467,3.9265,0.654,8.8662,4.1393,-0.0173,-0.4417,-0.2643,-0.0234,-0.0192,-0.0064,0.5,-30.25,23.5,175.42,-64.7,-8.98,74760,2015-10-08 15:49:31:061,0
0.5746,8.4084,3.869,0.6734,8.8566,4.1566,-0.0897,-0.4686,-0.2258,0.0746,-0.0341,0.0234,1,-29.75,23.75,175.27,-64.57,-9.2,74860,2015-10-08 15:49:31:161,0
0.6512,8.4467,3.7924,0.676,8.8716,4.124,-0.0248,-0.4249,-0.3316,0.0128,-0.0234,-0.032,1.5,-31,23.5,175.17,-64.54,-9.34,74960,2015-10-08 15:49:31:261,0
0.5555,8.4659,3.7924,0.6931,8.8642,4.1371,-0.1376,-0.3983,-0.3447,-0.0703,-0.0021,-0.1108,1.25,-30.5,23.5,175.05,-64.68,-9.51,75060,2015-10-08 15:49:31:361,0
0.6129,8.4084,3.9265,0.6739,8.8619,4.1453,-0.038,-0.4345,-0.2764,0.0192,0.0469,0.0128,1.25,-30.25,23.75,175.24,-64.64,-9.23,75160,2015-10-08 15:49:31:461,0
0.5938,8.4084,3.869,0.6838,8.8647,4.1375,-0.0901,-0.4563,-0.2685,-0.0128,-0.0213,0.0533,-0.5,-30,23.5,173.48,-64.68,-9.38,75260,2015-10-08 15:49:31:561,0
0.6704,8.4276,3.9456,0.657,8.8736,4.1229,0.0326,-0.5035,-0.1964,0.0043,0.0234,0.0234,0,-31.25,23.75,173.78,-64.8,-9.05,75360,2015-10-08 15:49:31:661,0
0.5938,8.4084,3.984,0.6488,8.8807,4.1088,-0.055,-0.4723,-0.1248,0.0341,0.0298,0.1662,0.5,-30.5,22.75,175.56,-64.9,-8.97,75460,2015-10-08 15:49:31:761,0
0.5746,8.4276,3.9073,0.632,8.8687,4.1372,-0.0574,-0.4411,-0.2299,-0.098,0.0277,-0.0618,1.75,-30.75,23,175.88,-64.84,-8.57,75560,2015-10-08 15:49:31:861,0
0.6129,8.4084,3.9648,0.6213,8.8615,4.1543,0.0108,-0.4339,-0.2278,0.0192,0.0937,0.0447,0.25,-30.75,23.25,175.77,-64.64,-8.67,75660,2015-10-08 15:49:31:961,0
0.6129,8.4084,3.8882,0.6019,8.8682,4.1427,0.011,-0.4598,-0.2545,-0.147,0.0064,0.0362,0,-30.25,23.25,174.34,-64.73,-8.27,75760,2015-10-08 15:49:32:061,0
0.5746,8.4276,3.9073,0.5764,8.8786,4.1241,-0.0018,-0.451,-0.2167,0.0383,0.0383,-0.0788,0,-30.5,23.25,174.46,-64.8,-8.09,75860,2015-10-08 15:49:32:161,0
0.5938,8.3893,3.9073,0.5949,8.8682,4.1438,-0.0011,-0.479,-0.2364,-0.0916,-0.0682,0.0256,1.75,-29.25,24,177.6,-64.73,-8.17,75960,2015-10-08 15:49:32:261,0
0.5746,8.4084,3.869,0.5774,8.8787,4.1237,-0.0028,-0.4703,-0.2547,-0.1108,0.0618,0.1364,0.25,-30.25,23.75,176.03,-64.75,-8.09,76060,2015-10-08 15:49:32:361,0
0.5746,8.4084,3.8499,0.5811,8.8634,4.1561,-0.0065,-0.4549,-0.3062,-0.0234,0.0043,-0.0043,0,-29.75,23.5,174.44,-64.81,-7.99,76160,2015-10-08 15:49:32:461,0
0.5938,8.3893,3.8882,0.5886,8.8469,4.1899,0.0052,-0.4577,-0.3018,-0.0724,-0.032,0.0703,0,-30.5,22.25,174.63,-64.66,-7.96,76260,2015-10-08 15:49:32:561,0
0.6321,8.4276,3.8307,0.6156,8.8546,4.1699,0.0165,-0.427,-0.3392,-0.0234,0.0618,-0.0937,0,-30.5,23.5,174.61,-64.44,-8,76360,2015-10-08 15:49:32:661,0
0.5555,8.3893,3.9456,0.5891,8.8449,4.1942,-0.0337,-0.4556,-0.2485,0.098,0.0085,-0.032,0,-30.5,23.75,174.34,-64.54,-8.4,76460,2015-10-08 15:49:32:761,0
0.6512,8.4084,3.9073,0.5868,8.853,4.1775,0.0644,-0.4445,-0.2701,0.0256,0.0682,0.0916,0.75,-30.75,23.5,176.26,-64.49,-7.84,76563,2015-10-08 15:49:32:864,0
0.6129,8.4084,3.8882,0.5975,8.8555,4.1705,0.0154,-0.4471,-0.2823,-0.1236,-0.0703,0.0682,0.5,-30,23.25,176.26,-64.56,-7.96,76660,2015-10-08 15:49:32:961,0
0.5746,8.3893,3.9648,0.5925,8.845,4.1935,-0.0179,-0.4557,-0.2287,0.0405,0.0085,-0.1214,0,-29.25,23.5,174.43,-64.56,-8.15,76760,2015-10-08 15:49:33:061,0
0.5746,8.3893,3.984,0.5841,8.8629,4.1567,-0.0095,-0.4736,-0.1728,-0.0788,0.017,-0.0149,0.5,-30,23.75,174.35,-64.41,-8.04,76860,2015-10-08 15:49:33:161,0
0.5746,8.4084,3.9648,0.5744,8.849,4.1877,2.0000E-04,-0.4405,-0.2229,-0.0511,0.0469,0.13,0.5,-31,23.25,176.38,-64.69,-7.85,76960,2015-10-08 15:49:33:261,0
