ACCELEROMETER X (m/s²),ACCELEROMETER Y (m/s²),ACCELEROMETER Z (m/s²),GRAVITY X (m/s²),GRAVITY Y (m/s²),GRAVITY Z (m/s²),LINEAR ACCELERATION X (m/s²),LINEAR ACCELERATION Y (m/s²),LINEAR ACCELERATION Z (m/s²),GYROSCOPE X (rad/s),GYROSCOPE Y (rad/s),GYROSCOPE Z (rad/s),MAGNETIC FIELD X (μT),MAGNETIC FIELD Y (μT),MAGNETIC FIELD Z (μT),ORIENTATION Z (azimuth °),ORIENTATION X (pitch °),ORIENTATION Y (roll °),Time since start in ms ,YYYY-MO-DD HH-MI-SS_SSS,state
-0.3831,4.9799,7.9679,0.5772,5.1387,8.3325,-0.7028,0.0293,0.1751,0.5625,-0.2131,0.2173,-7,-33.25,-29.25,174.31,-31.35,0.65,5,2015-10-07 16:20:19:541,1
1.2833,5.7844,8.9064,1.0126,5.8583,7.7991,0.2707,-0.0739,1.1073,1.3124,-0.9928,-0.3707,-12,-31.75,-27,139.09,-34.13,-5.58,105,2015-10-07 16:20:19:641,1
1.0343,6.9528,6.0525,1.6233,6.9293,6.7468,-0.589,0.0234,-0.6943,0.9055,-0.4346,-0.9779,-15,-33,-23.5,125.96,-42.58,-12.97,205,2015-10-07 16:20:19:741,1
2.0303,6.5122,4.4819,2.2676,7.5621,5.8175,-0.2373,-1.0499,-1.3355,0.3345,-1.4552,-0.0256,-15.5,-37,-14.75,135.17,-50.45,-21.3,305,2015-10-07 16:20:19:841,1
1.7047,7.3933,3.1795,2.4306,7.9556,5.1933,-0.2662,-1.1753,-0.3474,1.1185,-0.9417,-0.6072,-15.5,-38.75,-11.75,139.89,-51.73,-22.75,405,2015-10-07 16:20:19:941,1
2.1452,8.0637,4.1563,2.3615,8.2666,4.7178,-0.2354,-0.3753,-0.2167,0.0107,-0.2471,0.0618,-15,-40.5,-4.25,137.86,-57.45,-26.59,505,2015-10-07 16:20:20:041,1
2.4708,7.7381,4.8267,2.5481,8.1774,4.7757,0.4207,-0.4585,-0.3129,0.0405,-0.3814,-0.0959,-13.75,-41.5,-1.75,143.85,-56.56,-27.94,605,2015-10-07 16:20:20:141,1
2.3559,7.6614,4.7118,2.463,8.1468,4.8716,-0.1922,-0.3645,-0.0092,0.1172,-0.1598,-0.1427,-13,-40.75,-0.75,147.1,-56.14,-27.14,704,2015-10-07 16:20:20:240,1
2.3367,7.6231,5.0182,2.343,8.1739,4.8855,-0.0289,-0.5391,0.1242,0.0831,0.0703,-0.147,-12.5,-42.5,-1.5,150.34,-56.32,-26.09,804,2015-10-07 16:20:20:340,1
2.2793,7.6806,4.7501,2.2722,8.2266,4.8301,0.0071,-0.5461,-0.08,0.0724,0.1534,-0.032,-13.25,-40.5,-1,145.43,-56.89,-25.35,904,2015-10-07 16:20:20:440,1
1.8579,7.7764,4.4245,2.2134,8.2681,4.7865,-0.0299,-0.4917,-0.5918,0.0746,-0.0021,-0.2216,-12,-41.75,-0.25,149.42,-57.32,-24.97,1004,2015-10-07 16:20:20:540,1
2.1069,7.9679,4.2521,2.1706,8.2966,4.7565,-0.0637,-0.3287,-0.5044,-0.2003,0.1023,-0.0469,-11.75,-43,0.25,149.79,-57.74,-24.18,1105,2015-10-07 16:20:20:641,1
2.1261,8.102,4.5203,2.1586,8.2878,4.7774,-0.1666,-0.1475,-0.1039,-0.0362,0.049,-0.0767,-12.75,-42.25,0.25,146.71,-57.53,-24.08,1204,2015-10-07 16:20:20:740,1
1.8387,7.9104,4.6735,2.1586,8.2724,4.804,-0.3199,-0.2662,0.0419,-0.1193,-0.0852,0.0724,-11.5,-42,0,151.61,-57.8,-24,1305,2015-10-07 16:20:20:841,1
1.9728,8.0254,4.4436,2.1884,8.3209,4.7056,-0.2922,-0.3339,-0.0705,0.115,-0.1662,-0.2109,-11.25,-42,0,149.26,-57.52,-24.2,1405,2015-10-07 16:20:20:941,1
1.5131,8.2552,4.2138,2.0565,8.4569,4.5191,-0.5433,-0.2017,-0.3053,0.1811,0.0703,-0.0618,-11.75,-42.75,-0.75,151.89,-58.26,-24.77,1505,2015-10-07 16:20:21:041,1
2.3559,8.2169,4.5777,1.9932,8.4607,4.5403,0.526,-0.1481,0.0139,-0.0149,-0.0362,-0.1172,-10.75,-42.25,0,149.89,-59.7,-23.96,1605,2015-10-07 16:20:21:141,1
2.5283,8.0254,4.1755,1.8527,8.5716,4.3893,0.6843,-0.3147,-0.2991,0.1577,0.0511,-0.2216,-10.75,-42.25,0.25,150.52,-59.79,-23.57,1705,2015-10-07 16:20:21:241,1
2.241,7.4891,4.3479,1.7492,8.6282,4.3203,0.4918,-1.1391,0.0275,-0.1342,0.0682,-0.2642,-11,-43,0.5,149.2,-61.41,-22.56,1805,2015-10-07 16:20:21:341,1
0.8619,8.0062,3.8499,1.2453,8.8493,4.0386,-0.3834,-0.8431,-0.1887,0.4176,-0.1342,-0.8288,-9.5,-44,1,152.05,-61.58,-21.13,1905,2015-10-07 16:20:21:441,1
0.0766,8.3127,3.3136,0.8211,9.0535,3.6783,-0.4706,-0.8844,-0.4234,0.1917,-0.4176,-0.5135,-7.75,-43.75,2.25,154.75,-66.55,-14.2,2005,2015-10-07 16:20:21:541,1
0.0383,7.7572,2.9113,0.5604,9.1524,3.477,-0.7999,-1.403,-0.4951,0.1662,-0.6903,-0.5752,-3.5,-46.5,4,163.87,-67.4,-12.58,2105,2015-10-07 16:20:21:641,1
-0.6129,8.351,2.0686,0.4602,9.2513,3.2205,-0.677,-1.1203,-0.9303,0.1641,-1.1718,-0.392,-2.25,-46.5,4.75,172.52,-69.99,-7.61,2205,2015-10-07 16:20:21:741,1
-1.3791,9.4236,3.2178,0.5577,9.2871,3.0998,-1.9367,0.1365,0.118,0.0383,-1.3294,0.1236,0.75,-47.75,6.5,179.34,-71.27,-10.2,2305,2015-10-07 16:20:21:841,1
-2.0877,9.8641,2.7198,0.8376,9.313,2.9559,-3.0785,0.5511,-0.1978,0.13,-0.8266,0.2791,1,-49,6.75,178.3,-71.33,-13.52,2405,2015-10-07 16:20:21:941,1
-3.7158,11.8178,3.5434,0.791,9.3911,2.7114,-4.3152,2.1394,0.9661,0.4794,-0.13,0.2812,0.25,-47,6.75,174.29,-72.49,-17.06,2505,2015-10-07 16:20:22:041,1
-3.3327,12.4307,3.237,0.1411,9.5685,2.1433,-3.4739,2.8622,1.0937,1.4338,1.2847,-0.7052,-0.25,-47,7.5,178.34,-77.35,-3.77,2605,2015-10-07 16:20:22:141,1
-4.0797,11.6837,1.7621,-1.5654,9.6685,0.4909,-2.5144,2.0152,1.2713,2.3628,1.9558,-1.2932,-1.75,-47,10.25,187.5,-79.68,14.4,2705,2015-10-07 16:20:22:241,1
-4.6352,10.1323,-1.8004,-3.0902,9.2019,-1.3948,-2.2345,0.8729,0.7435,0.3089,0.6285,-0.4645,1,-47.5,16.5,235.99,-77.39,94.45,2804,2015-10-07 16:20:22:340,1
2.5474,8.2552,0.2298,-2.7102,9.2807,-1.6414,5.6024,-1.5809,1.3732,0.5902,-1.1484,0.8501,3.5,-43.25,24,273.44,-71.15,121.2,2904,2015-10-07 16:20:22:440,1
8.0828,3.8116,-2.1261,-0.9007,9.5586,-1.9979,9.4049,-5.8237,0.9253,0.9758,-1.6959,2.35,3.5,-38,27.75,336.4,-77.09,155.73,3004,2015-10-07 16:20:22:540,1
7.4508,8.4467,-1.4174,1.6085,9.4312,-2.1531,6.685,-1.5782,0.2952,-0.4581,0.7137,0.1427,2.5,-35.25,30.25,9.03,-76.73,178.4,3105,2015-10-07 16:20:22:641,1
2.7198,6.6846,-3.9265,2.1369,9.3659,-1.9707,0.4488,-2.9878,-1.8026,0.6626,0.5518,0.3707,-2.75,-34.5,30.75,59.76,-72.76,-132.68,3205,2015-10-07 16:20:22:741,1
4.6543,8.4276,-4.5394,2.57,9.1059,-2.5784,2.0843,-0.6783,-1.961,0.1768,0.3047,-0.2727,-7,-34.5,30.25,54.21,-68.21,-135.09,3305,2015-10-07 16:20:22:841,1
4.2713,7.4508,-3.6966,2.3253,9.1632,-2.6073,1.9459,-1.7125,-1.0893,-0.1342,0.3856,-0.7222,-8.75,-33.5,31,41.99,-69.13,-138.27,3405,2015-10-07 16:20:22:941,1
4.4628,7.7764,-2.988,1.9172,9.3822,-2.1138,2.5456,-1.6059,-0.8741,-0.7968,0.6839,-0.9928,-7.75,-34.75,30,41.26,-73.08,-137.79,3504,2015-10-07 16:20:23:040,1
2.5857,7.1635,-1.4174,1.2212,9.6467,-1.2727,1.3645,-2.4833,-0.1447,-1.1484,0.522,-1.1462,-6.5,-38.5,27.5,40.38,-78.08,-136.05,3605,2015-10-07 16:20:23:141,1
-0.0575,8.5617,0.9385,0.0857,9.7774,-0.7524,-1.2091,-1.2799,0.9158,-0.6967,-0.1023,-1.0099,-3.25,-39.75,25.5,22.67,-83.63,-150.18,3705,2015-10-07 16:20:23:241,1
-2.0494,8.8298,1.3408,-0.3781,9.7879,-0.4735,-1.1311,-0.7086,1.6146,-0.5135,-0.4304,-0.7201,-0.5,-43.25,23,316.8,-86.46,141.39,3805,2015-10-07 16:20:23:341,1
-2.1644,9.8833,0.498,-1.0528,9.7495,0.0996,-1.1116,0.1338,0.3984,-0.1939,-0.6328,-0.115,1.75,-44.75,19.5,264.13,-84.13,91.63,3905,2015-10-07 16:20:23:441,1
-2.3559,9.6343,0.5171,-1.2286,9.7207,0.4116,-1.1273,-0.0864,0.1055,0.2258,-0.6626,-0.1044,4.25,-47,17.5,246.12,-82.41,71.48,4005,2015-10-07 16:20:23:541,1
-5.3822,9.1171,0.9577,-1.3743,9.6763,0.8065,-4.0079,-0.5592,0.1512,-0.5177,-0.3345,0.2557,4.75,-45.75,16.25,248.45,-81.78,73.16,4105,2015-10-07 16:20:23:641,1
-3.0454,11.5688,1.0534,-1.3067,9.6606,1.0657,-1.1833,2.0614,-1.1423,-0.7904,-0.017,-0.0192,3.25,-45.75,14.25,221.64,-80.1,50.8,4204,2015-10-07 16:20:23:740,1
-1.2067,10.2089,0.1341,-1.3551,9.6312,1.255,0.1484,0.5777,-1.1209,0.2067,-0.0128,0.0128,1.5,-47,12,211.19,-78.4,43.4,4304,2015-10-07 16:20:23:840,1
-0.6895,8.9064,1.3791,-1.341,9.6324,1.2603,0.6515,-0.726,0.1188,0.2088,-0.0469,-0.0469,1.75,-47.5,11.5,213.19,-79.18,46.78,4405,2015-10-07 16:20:23:941,1
-0.6895,8.7724,1.9154,-1.3294,9.6303,1.2886,0.8085,-0.7819,0.4932,0.0511,-0.0362,-0.0149,1,-46.75,11,213.88,-79.31,47.63,4505,2015-10-07 16:20:24:041,1
-0.8428,9.1171,1.3599,-1.2517,9.6441,1.2632,0.4802,-0.526,0.0651,-0.0724,0.0703,0.13,2.5,-47.75,11,214.94,-79.48,45.51,4604,2015-10-07 16:20:24:140,1
-0.6512,9.4044,1.1684,-1.1293,9.6621,1.2403,0.4781,-0.2577,-0.072,-0.0085,0.0362,-0.0149,2,-47,11.75,211.73,-80.15,42.32,4704,2015-10-07 16:20:24:240,1
-0.6704,9.232,1.3599,-1.0968,9.6708,1.201,0.4264,-0.4388,0.1589,-0.0383,-0.1236,-0.017,2,-45.75,12,215.7,-80.35,42.73,4805,2015-10-07 16:20:24:341,1
-0.8811,9.1554,1.3982,-1.1187,9.6672,1.2099,0.2329,-0.5123,0.0351,0.0639,-0.066,0.0362,2,-46.75,11.75,212.24,-80.33,42.76,4904,2015-10-07 16:20:24:440,1
-0.6129,9.232,1.0918,-1.115,9.6695,1.1951,0.5021,-0.4374,-0.1033,-0.0724,0.0213,-0.049,1,-47.5,12,208.78,-80.39,42.02,5004,2015-10-07 16:20:24:540,1
-0.4405,9.1937,0.996,-1.1033,9.671,1.1941,0.6627,-0.4772,-0.1981,-0.0128,0.0405,0.0043,0.75,-47.75,12.25,208.83,-80.39,42.51,5104,2015-10-07 16:20:24:640,1
-0.0575,9.2895,1.0151,-1.0675,9.6786,1.1644,1.01,-0.3891,-0.1493,0.0788,-0.1364,-0.0511,1.75,-47.25,13,213.06,-80.56,42.69,5204,2015-10-07 16:20:24:740,1
0.498,9.1554,0.9768,-0.9994,9.6938,1.0966,1.4974,-0.5383,-0.1198,0.2194,-0.4538,-0.1683,2,-45.75,13.25,214.02,-81.05,42.74,5304,2015-10-07 16:20:24:840,1
0.6129,8.9639,1.1492,-0.9291,9.6985,1.1165,1.542,-0.7346,0.0327,0.1129,-0.5603,-0.1811,2.75,-47.25,13,216.2,-81.54,40.79,5404,2015-10-07 16:20:24:940,1
-0.1341,8.6383,1.7621,-0.9362,9.6842,1.2286,0.8021,-1.046,0.5336,-0.1534,-0.5497,-0.115,2.75,-47,13,216.07,-81.57,40.54,5505,2015-10-07 16:20:25:041,1
-1.2641,8.9639,0.6321,-0.9692,9.6889,1.1644,-0.295,-0.725,-0.5323,-0.066,-0.8884,-0.0128,3,-46.75,13.75,214.27,-80.98,38.76,5605,2015-10-07 16:20:25:141,1
-2.8539,9.1363,1.2258,-0.8539,9.673,1.3689,-2,-0.5367,-0.1431,0.0256,-1.2549,0.2471,4.25,-47.75,13,215.86,-80.75,37.48,5705,2015-10-07 16:20:25:241,1
-3.237,10.2663,2.375,-0.6627,9.6574,1.5703,-2.5742,0.6089,0.8047,-0.3622,-0.5667,0.3686,6,-49.25,12.25,214.73,-80.47,28.03,5805,2015-10-07 16:20:25:341,1
-3.7733,10.5153,2.7964,-0.6029,9.6412,1.6893,-3.1704,0.8741,1.1071,0.326,0.2599,0.4048,6.5,-49,11,211.76,-79.33,20.43,5905,2015-10-07 16:20:25:441,1
-4.9416,11.7603,3.1987,-0.8558,9.6693,1.3938,-4.4799,2.3696,1.7582,1.159,1.3401,0.0426,6,-48.25,10.75,210.32,-79.75,21.52,6005,2015-10-07 16:20:25:541,1
-4.0989,10.9367,1.8579,-1.6123,9.6713,0.1911,-2.2919,1.5556,1.6174,1.6,2.3159,-0.8011,2.75,-47.75,11.25,229.66,-81.49,62.64,6105,2015-10-07 16:20:25:641,1
-4.9416,9.9024,0.8619,-2.7665,9.3204,-1.2831,-2.7497,0.0265,1.513,1.3508,1.093,-1.1207,1.75,-47.5,14.75,240.3,-80.47,83.24,6205,2015-10-07 16:20:25:741,1
0.9385,8.2552,-0.5171,-2.8992,9.2023,-1.7558,3.8377,-0.9471,1.2387,0.2876,-0.7265,0.0234,0.5,-43.5,20.5,252.7,-68.56,118.4,6305,2015-10-07 16:20:25:841,1
6.4165,5.4971,-2.624,-1.9674,9.3846,-2.0563,8.3839,-3.8875,-0.5677,0.3111,-1.4253,1.0376,1.25,-41.25,24.5,263.48,-69.78,121.2,6404,2015-10-07 16:20:25:940,1
7.853,4.3479,-2.1261,0.7357,9.4616,-2.4713,7.6536,-3.275,0.5943,0.5561,-0.9822,2.7633,-0.5,-37.75,27.5,313.62,-75.79,148.7,6504,2015-10-07 16:20:26:040,1
7.9679,8.1594,-0.1341,2.2246,9.3466,-1.9652,5.7433,-1.1872,1.8311,0.1854,0.9076,-0.4453,-1.75,-34,30,42.87,-72.73,-148.12,6604,2015-10-07 16:20:26:140,1
3.9265,8.5617,-4.5777,2.2125,9.2979,-2.1964,1.6374,-0.9086,-2.1898,0.3238,0.5561,-0.1406,-6,-32.25,31.25,63.14,-72.7,-127.48,6705,2015-10-07 16:20:26:241,1
3.8307,8.5425,-3.3519,2.2739,9.2214,-2.4424,1.5568,-0.6789,-0.9094,0.0085,0.0895,0.0107,-9.75,-33.25,30.25,45.75,-71.46,-134.79,6805,2015-10-07 16:20:26:341,1
3.5051,7.9296,-2.5666,2.1829,9.2615,-2.3726,1.1816,-1.1902,-0.4017,-0.0831,0.0852,-0.2919,-10,-32.25,31.75,39.89,-70.11,-137.05,6904,2015-10-07 16:20:26:440,1
3.3519,8.0828,-2.0494,2.0601,9.381,-1.981,1.1053,-1.3804,0.0284,-0.5965,0.2748,-0.3707,-10,-30.25,31.75,38.29,-71.56,-136.12,7005,2015-10-07 16:20:26:541,1
2.375,8.2169,-0.2298,1.6484,9.5513,-1.4922,1.1606,-1.3339,0.1815,-0.5071,0.2194,-0.669,-10.5,-30,30,38.48,-75.16,-132.84,7105,2015-10-07 16:20:26:641,1
1.992,8.0254,0.4405,0.9934,9.6833,-1.1905,0.2171,-1.6268,1.6841,0.1257,-0.1321,-0.7883,-9.75,-33.25,28.75,35.02,-77.72,-134.17,7204,2015-10-07 16:20:26:740,1
0.498,8.1403,-0.0575,0.3259,9.754,-0.9608,0.1721,-1.6137,0.9033,-0.4964,0.1193,-0.5859,-7.25,-35.75,27.5,29.43,-80.9,-140.16,7305,2015-10-07 16:20:26:841,1
-0.6129,8.1211,-0.9002,-0.1243,9.8012,-0.3011,-0.1055,-2.1781,2.0057,0.3728,-0.1768,-0.3281,-4.25,-37.75,26.5,352.14,-87.27,-178.91,7405,2015-10-07 16:20:26:941,1
-1.5131,9.2703,0.1724,-0.3959,9.7987,-0.0074,-0.8299,-0.8922,0.6586,0.2663,-0.4538,0.0874,0.25,-40,24.5,331.88,-88.1,157.56,7505,2015-10-07 16:20:27:041,1
-3.6966,10.1706,-0.0192,-0.3682,9.7983,0.1687,-3.3285,0.3723,-0.1878,-0.049,-0.1598,0.3643,0,-42.5,23.25,267.12,-87.69,91.07,7605,2015-10-07 16:20:27:141,1
-4.7884,12.4307,-1.6281,-0.3844,9.7963,0.2363,-4.405,2.9229,-1.4118,-0.392,-0.0128,0.4794,1,-42.5,22.5,243.92,-87.63,65.39,7704,2015-10-07 16:20:27:240,1
-1.5706,10.4579,-0.9385,-0.33,9.7928,0.4022,-1.2932,0.8754,-1.2138,-0.2642,-0.0618,0.1726,0,-43.5,21,220.1,-86.83,41.45,7804,2015-10-07 16:20:27:340,1
0.2873,10.0365,1.0151,-0.3147,9.7853,0.5644,0.4324,0.175,0.4819,0.2109,-0.1981,-0.0383,-1.5,-45.25,19.5,203.93,-86.18,30.23,7904,2015-10-07 16:20:27:440,1
0,8.7724,1.5323,-0.4131,9.7743,0.6802,0.4004,-1.0019,0.8444,0.1257,-0.081,-0.1747,-1.75,-46.25,18.75,202.72,-86.22,29.14,8004,2015-10-07 16:20:27:540,1
0.3065,8.9447,0.8236,-0.4766,9.7714,0.68,0.7831,-0.8267,0.1436,0.196,0.1491,-0.0277,-2.25,-46,17,202.77,-85.12,34.48,8104,2015-10-07 16:20:27:640,1
0.0766,9.1171,0.8428,-0.4336,9.7743,0.6681,0.4362,-0.6206,0.1908,0.1129,0.0639,0.2067,-0.75,-45.75,16.75,204.92,-85.29,33.58,8204,2015-10-07 16:20:27:740,1
-0.0766,9.2703,0.7087,-0.3647,9.7808,0.611,0.2689,-0.453,0.0594,0.017,0.0341,0.0298,-0.5,-44.75,17.5,206.4,-85.77,31.05,8304,2015-10-07 16:20:27:840,1
-0.1149,9.1746,0.6895,-0.2898,9.7834,0.6099,0.1859,-0.609,0.0883,-0.0426,-0.1342,0.1129,-0.5,-43.75,18,204.37,-85.96,28.39,8404,2015-10-07 16:20:27:940,1
0.1341,9.3087,0.6321,-0.2739,9.7808,0.6571,0.3314,-0.4913,0.0899,-0.0788,0.0277,0.1683,-0.75,-44.75,17.75,199.12,-86.05,25.41,8505,2015-10-07 16:20:28:041,1
0.6512,9.5385,0.6321,-0.2252,9.7789,0.7015,0.8023,-0.1639,-0.1638,-0.2088,-0.0107,-0.0256,-0.25,-45,17.5,199.25,-85.84,22.63,8605,2015-10-07 16:20:28:141,1
1.3791,9.232,0.8428,-0.2758,9.7735,0.7571,1.7692,-0.6351,0.3646,-0.0234,-0.1087,-0.2791,0,-43.75,17.5,192.4,-85.69,17.8,8704,2015-10-07 16:20:28:240,1
1.5514,8.9447,0.4214,-0.257,9.7688,0.8217,1.8107,-0.8273,-0.36,0.1747,-0.2407,-0.1449,-0.5,-43.5,16,192.59,-84.72,15.63,8804,2015-10-07 16:20:28:340,1
1.2258,8.4659,1.1684,-0.2853,9.7741,0.7455,1.5075,-1.3089,0.4301,0.1811,-0.5156,-0.2365,1,-44.25,15.5,202.09,-85.55,23.05,8904,2015-10-07 16:20:28:440,1
0.498,8.5042,2.0111,-0.1704,9.7799,0.704,0.7219,-1.273,1.2853,0.1406,-0.8394,0.1854,2.5,-44,16,207.11,-85.75,21.67,9004,2015-10-07 16:20:28:540,1
-1.1109,8.9639,0.7087,0.0617,9.7875,0.6091,-1.1444,-0.825,0.1202,-0.2173,-1.3252,0.3537,1,-45,15.75,185.97,-86.66,3.36,9104,2015-10-07 16:20:28:640,1
-2.4517,9.6726,1.4365,0.3344,9.7725,0.7463,-2.7861,-0.0999,0.6902,-0.2834,-1.2826,0.3515,2.75,-44.75,16.5,172.19,-85.82,-19.28,9204,2015-10-07 16:20:28:740,1
-3.0454,10.6494,2.2984,0.4847,9.7273,1.1472,-3.5301,0.9222,1.1512,-0.4176,-0.4772,0.4197,2,-46.75,16,166.2,-84.7,-23.85,9304,2015-10-07 16:20:28:840,1
-2.8156,12.3924,3.1603,0.3485,9.7039,1.3722,-3.3627,2.506,1.8333,0.718,0.6242,0.0234,2,-45.5,15.25,173.59,-80.88,-16.94,9405,2015-10-07 16:20:28:941,1
-2.5091,12.2009,3.1029,-0.4543,9.7584,0.8587,-2.0088,2.5409,2.3009,1.2506,1.992,-0.9502,0,-46.75,13,183.36,-83.59,4.69,9504,2015-10-07 16:20:29:040,1
-5.0374,12.1625,0.6321,-1.8771,9.6111,-0.5228,-3.1603,2.5514,1.1549,0.7989,2.1412,-1.2826,0.25,-47.5,14.75,247.93,-81.76,92.54,9605,2015-10-07 16:20:29:141,1
-5.0949,9.347,-1.7238,-3.4274,8.9792,-1.9485,-1.6675,0.3677,0.2246,0.6221,0.6136,-0.7009,2.5,-43.5,20.5,261.25,-71.25,115.43,9705,2015-10-07 16:20:29:241,1
6.9719,5.2289,-1.7047,-2.4609,9.3117,-1.8455,9.4328,-4.0828,0.1408,-1.5425,-0.8906,0.3792,5.5,-38.5,26.75,281.45,-67.79,123.03,9805,2015-10-07 16:20:29:341,1
7.3167,4.3479,-0.3448,-1.2836,9.5229,-1.9591,9.1558,-5.7687,-2.5995,-0.0085,-0.5326,1.9217,2,-34.25,28,318.92,-76.18,146.77,9905,2015-10-07 16:20:29:441,1
6.7421,7.2975,-2.0686,1.8829,9.2788,-2.5551,4.7059,-1.1768,0.7164,-0.032,-0.4218,1.4083,0,-31.75,30,39.47,-73.26,-153.2,10005,2015-10-07 16:20:29:541,1
3.1029,6.7229,-2.5474,2.3944,9.2443,-2.2318,0.5552,-2.5405,-0.354,0.3515,0.245,-0.1278,-4.25,-29,32.75,48.16,-71.12,-143.61,10105,2015-10-07 16:20:29:641,1
4.2713,7.8721,-4.7309,2.5124,9.0683,-2.7613,1.7588,-1.1961,-1.9697,0.5241,0.3451,-0.0703,-8,-27.75,33,43.97,-67.62,-137.7,10204,2015-10-07 16:20:29:740,1
4.1563,7.6806,-2.9113,2.3941,9.0063,-3.0539,1.4941,-1.1916,-0.3555,-0.2876,0.4197,-0.6029,-11.25,-25.75,34,32.9,-66.01,-140.97,10305,2015-10-07 16:20:29:841,1
3.6775,7.5657,-2.2218,1.7339,9.2616,-2.7179,1.9436,-1.6959,0.4961,-0.3515,0.5625,-1.2634,-11.75,-24.5,34.75,30.13,-67.42,-142.06,10405,2015-10-07 16:20:29:941,1
1.3982,7.5657,0.0383,0.8066,9.5604,-2.0296,0.5916,-1.9947,2.0679,-0.9673,0.3771,-1.5702,-10.25,-26.25,34.5,20.98,-70.81,-147.46,10506,2015-10-07 16:20:30:042,1
-0.0766,8.2935,-0.4597,-0.1049,9.6458,-1.7656,-0.1515,-1.7888,2.0922,-0.8884,-0.1619,-1.3763,-7.5,-29.5,33,8.58,-77.13,-158.33,10605,2015-10-07 16:20:30:141,1
-1.3982,7.5848,1.5131,-0.7853,9.7495,-0.7079,-0.7044,-1.5848,0.3189,-1.3358,0.3707,-0.3622,-3.25,-30.5,31,331.66,-80.98,161.6,10705,2015-10-07 16:20:30:241,1
-2.3559,8.6,0.3065,-1.0018,9.7388,-0.5675,-1.3541,-1.1388,0.874,-0.3025,0.0234,0.2365,0.25,-35.25,28.5,296.86,-82.89,124.75,10805,2015-10-07 16:20:30:341,1
-3.9648,9.9599,-1.5131,-1.011,9.7354,-0.6086,-3.2574,0.5317,-0.9546,0.1129,-0.7095,0.1939,2,-38,25.75,295.46,-83.26,119.53,10904,2015-10-07 16:20:30:440,1
-4.4628,11.3964,-1.4365,-0.8458,9.7623,-0.3901,-3.8513,1.5921,-0.4119,-0.3792,-0.4815,0.5071,2.5,-38.75,25.5,293.77,-84.55,114.76,11005,2015-10-07 16:20:30:541,1
-2.7198,11.2815,-0.8619,-0.6675,9.7821,-0.1886,-1.8795,1.3453,-0.3996,-0.2961,-0.4581,0.1534,2.5,-39.5,23.75,286.57,-85.94,105.78,11105,2015-10-07 16:20:30:641,1
-0.6895,9.6343,0.1724,-0.6413,9.785,0.1107,-0.5803,-0.0741,-0.1868,-0.2152,-0.1896,0.0575,1.5,-41,21.75,262.2,-86.18,84.03,11204,2015-10-07 16:20:30:740,1
-0.3065,9.347,0.5555,-0.6061,9.7841,0.2714,0.1472,-0.552,0.2823,-0.0469,-0.066,0.0298,1,-42,21,244.62,-86.13,68.85,11305,2015-10-07 16:20:30:841,1
-0.0575,9.1937,0.3831,-0.6057,9.7832,0.3032,0.5249,-0.5323,-0.015,0.0021,0.0874,0.0085,0.75,-42.75,19.25,240.84,-86.06,65.33,11405,2015-10-07 16:20:30:941,1
-0.1724,9.1746,0.4214,-0.5623,9.7849,0.3314,0.4116,-0.6487,0.1549,0.2003,0.1598,0.1087,1,-41.5,19,239.79,-86.05,64.47,11504,2015-10-07 16:20:31:040,1
-0.1915,9.347,0.1724,-0.4625,9.7923,0.2598,0.2569,-0.4462,-0.0772,-0.0021,0.2471,0.0895,1,-41.25,19.75,237.67,-86.39,61.2,11604,2015-10-07 16:20:31:140,1
-0.0192,9.4427,0.2298,-0.4177,9.7957,0.201,0.3945,-0.353,0.0248,-0.0256,0.0959,-0.0511,0.5,-41.25,18.75,242.17,-87.29,64.3,11704,2015-10-07 16:20:31:240,1
0,9.3853,0.249,-0.4121,9.7948,0.2481,0.414,-0.4096,0.004,-0.1896,0.0597,-0.0937,0.5,-41.75,18.75,239.35,-87.29,61.47,11804,2015-10-07 16:20:31:340,1
0.3065,9.4236,0.0766,-0.4536,9.7925,0.2681,0.7534,-0.3695,-0.1799,-0.0064,0.0959,-0.0341,-0.25,-41,18.5,235.87,-86.95,61.28,11905,2015-10-07 16:20:31:441,1
0.7087,9.3661,-0.0575,-0.3985,9.7897,0.4168,1.1072,-0.4236,-0.4742,-0.2131,-0.032,0.0128,0.5,-41,18,227.02,-86.7,49.3,12004,2015-10-07 16:20:31:540,1
1.7047,8.849,0.6512,-0.3636,9.779,0.6394,1.8767,-0.9492,-0.0073,-0.1832,0.2493,-0.3004,0.25,-42.5,17.5,206.17,-86.07,30.16,12104,2015-10-07 16:20:31:640,1
1.0918,8.6,1.5131,-0.4167,9.7668,0.7786,1.451,-1.2243,0.3898,0.0447,-0.0852,-0.0277,0.75,-42.5,17,207.14,-85.21,32.33,12204,2015-10-07 16:20:31:740,1
0.5363,8.9447,0.747,-0.2531,9.7584,0.9377,0.7702,-0.8903,0.2498,0.2365,-0.6626,0.1832,0.5,-43.5,16,204.42,-84.82,26.38,12304,2015-10-07 16:20:31:840,1
-1.3599,8.8107,1.4748,-0.121,9.7514,1.0326,-1.2389,-0.9407,0.4422,-0.1065,-1.3934,0.0852,0.5,-44.5,15.5,189.52,-84.18,8.53,12405,2015-10-07 16:20:31:941,1
-2.4517,9.4044,0.8619,-0.086,9.7359,1.1725,-2.3657,-0.3315,-0.3106,-0.2557,-1.3252,0.1747,-1.5,-41,15.75,180.48,-83.11,4.19,12505,2015-10-07 16:20:32:041,1
-2.9305,10.0748,1.743,-0.0235,9.6668,1.65,-2.8695,0.3247,-0.0733,-0.522,-0.4645,0.3025,-2.5,-38,15,175.09,-81.26,0.87,12605,2015-10-07 16:20:32:141,1
-2.5857,10.4962,2.5091,-0.0867,9.6235,1.8843,-2.7245,0.9505,0.5795,0.0426,0.3643,0.098,-3,-37.75,14,173.66,-78.91,2.63,12705,2015-10-07 16:20:32:241,1
-1.8962,10.3621,2.7773,-0.2893,9.6032,1.9661,-1.6069,0.7589,0.8112,-0.3302,1.061,0.179,-3.75,-38.25,13.25,174.35,-78.31,8.37,12805,2015-10-07 16:20:32:341,1
-2.2027,10.8601,1.8387,-0.6136,9.6866,1.4013,-1.5891,1.1735,0.4374,0.9651,1.6362,-0.1044,-5.25,-38.25,13,181.85,-81.03,23.65,12905,2015-10-07 16:20:32:441,1
-3.371,10.9559,0.1724,-1.1158,9.7392,0.2695,-2.2552,1.2166,-0.0971,1.0269,1.8088,-0.3835,-6,-36.75,16.75,227.02,-83.28,76.42,13005,2015-10-07 16:20:32:541,1
-3.7158,9.7875,0.5938,-1.7856,9.6043,-0.8594,-1.9302,0.1832,1.4531,1.1974,0.8948,-0.7734,-6.25,-33.5,21.25,261.95,-78.34,115.7,13105,2015-10-07 16:20:32:641,1
0.8045,8.1594,1.0343,-1.9047,9.4771,-1.6516,4.4138,-2.1795,1.6325,0.1555,-0.4282,-0.1577,-6.5,-30.75,26.25,279.89,-75.1,130.93,13205,2015-10-07 16:20:32:741,1
3.9073,7.355,-1.7238,-1.2493,9.5477,-1.8577,4.577,-1.9841,0.4033,0.3473,-0.9566,0.1896,-8.5,-27.25,28.25,282.92,-75.73,134.07,13304,2015-10-07 16:20:32:840,1
3.869,7.4891,-2.4134,-0.4623,9.5912,-1.9912,4.4286,-2.0963,-0.4191,-0.017,-1.2975,0.8778,-9.75,-26.5,30,304.73,-76.97,152.32,13405,2015-10-07 16:20:32:941,1
3.3902,6.5122,-2.2027,0.7152,9.576,-1.9895,3.8855,-2.8721,-0.4644,-0.0192,-0.9864,1.2059,-11.25,-27.25,31,349.34,-78.16,-169.11,13505,2015-10-07 16:20:33:041,1
3.7733,9.4427,-1.2641,1.8236,9.5153,-1.5177,1.9497,-0.0726,0.2535,-0.8735,0.0874,0.3728,-12.25,-26.25,31.75,26.87,-76.03,-138.06,13605,2015-10-07 16:20:33:141,1
2.9497,8.9639,-2.0877,2.0824,9.5095,-1.185,0.8673,-0.5456,-0.9028,0.1875,0.0767,-0.0064,-13.75,-26,31.75,47.46,-76.43,-120.17,13705,2015-10-07 16:20:33:241,1
2.8539,8.6383,-1.6472,2.1421,9.4943,-1.2002,1.1612,-0.4503,-0.3038,0.0511,-0.1726,-0.0213,-14,-25.75,30,44.73,-75.5,-119.26,13805,2015-10-07 16:20:33:341,1
2.9497,8.7149,-1.0918,2.1254,9.5,-1.1849,1.1801,-0.5968,-0.1624,-0.179,0.147,-0.3302,-14.75,-25.75,30,42.82,-75.63,-119.14,13904,2015-10-07 16:20:33:440,1
3.1795,8.5808,-0.5938,1.9619,9.5531,-1.0297,1.1793,-0.6849,0.072,-0.3196,0.3643,-0.6093,-14.25,-27,29.25,45.1,-76.94,-117.69,14005,2015-10-07 16:20:33:541,1
2.8156,8.1786,-0.4405,1.6692,9.6479,-0.5504,1.2317,-1.4887,0.0123,-0.3217,0.441,-0.5859,-14.75,-27,28.5,51.59,-79.68,-108.25,14105,2015-10-07 16:20:33:641,1
0.2107,7.9487,0.6129,1.1494,9.7391,7.0000E-04,-0.7867,-1.8055,0.4397,-0.6796,0.6924,-0.8011,-13.75,-27.25,26.75,68.35,-83.27,-89.96,14205,2015-10-07 16:20:33:741,1
-0.1341,8.5042,0.8045,0.5639,9.7904,-0.0241,-0.0232,-1.3097,1.242,-0.2471,0.1683,-0.4431,-13,-28.75,24.75,63.15,-86.7,-92.45,14304,2015-10-07 16:20:33:840,1
0.4214,9.2129,-0.8428,-0.0054,9.802,-0.303,0.1891,-0.7618,-0.2477,0.1193,0.0447,-0.4517,-9.75,-30.5,24.75,37.42,-87.79,-120.33,14405,2015-10-07 16:20:33:941,1
-1.8962,8.6574,-0.7278,-0.5729,9.7882,-0.1851,-0.6028,-1.2517,0.6875,0.1577,-0.441,-0.4666,-7.25,-30.75,26,270.61,-87.37,108.71,14505,2015-10-07 16:20:34:041,1
-2.1069,8.7724,-0.3639,-0.9803,9.7575,-0.0056,-1.2607,-0.9086,-0.2817,-0.245,-0.3622,-0.1108,-5.5,-30.25,25.5,253.27,-84.26,90.33,14604,2015-10-07 16:20:34:140,1
-2.375,8.8298,1.3024,-1.2003,9.7244,0.4069,-0.7917,-0.7414,1.2021,0.2258,-0.6669,-0.1172,-3,-31.25,25.25,252.42,-83.77,85.75,14705,2015-10-07 16:20:34:241,1
-2.7773,10.2472,0.0958,-1.3892,9.6916,0.56,-1.3115,-0.019,0.3211,0.228,-0.4368,0.0149,-0.25,-32.75,23,237.6,-81.21,68.04,14804,2015-10-07 16:20:34:340,1
-3.869,10.4004,-0.0383,-1.3934,9.6865,0.6336,-2.2613,0.7094,-0.7041,-0.4666,-0.017,0.2471,0,-33.25,22.5,239.3,-81.22,69.96,14904,2015-10-07 16:20:34:440,1
-2.5666,9.8641,0.1724,-1.3023,9.6963,0.6748,-1.2095,0.1721,-0.4547,-0.1683,0.0021,0.049,-1,-34.5,21,233.96,-81.13,64.82,15005,2015-10-07 16:20:34:541,1
-2.1261,9.1937,0.1341,-1.1946,9.7103,0.6728,-0.9199,-0.5162,-0.5234,-0.2706,0.2194,0.3196,-0.5,-35.5,20.25,229.54,-81.43,62.91,15104,2015-10-07 16:20:34:640,1
-0.9768,9.481,0.8428,-1.0491,9.7258,0.6913,0.1494,0.0051,-0.0986,-0.1449,0.115,0.0852,-2.25,-34.25,20,226.01,-82.12,58.86,15205,2015-10-07 16:20:34:741,1
-0.6129,9.3661,0.6704,-0.9939,9.7298,0.7171,0.3618,-0.402,-0.085,-0.0746,0.0852,0.0128,-3,-34,19.75,218.36,-82.82,54.19,15304,2015-10-07 16:20:34:840,1
-0.5171,9.3278,0.7661,-0.949,9.7354,0.7019,0.4263,-0.4081,0.0639,0.0021,-0.0064,0.0234,-3.25,-34.25,19.75,217.16,-82.98,52.64,15405,2015-10-07 16:20:34:941,1
-0.4214,9.2512,0.5363,-0.8883,9.7433,0.6703,0.3136,-0.4699,-0.1139,0.0383,0.0937,-0.017,-4,-35,19.5,215.35,-83.48,52.96,15505,2015-10-07 16:20:35:041,1
-0.5746,9.1746,0.5555,-0.8517,9.7478,0.6528,0.2771,-0.5732,-0.0973,-0.1001,0.0767,-0.0767,-3.5,-34.75,19.75,215.55,-83.36,53.32,15605,2015-10-07 16:20:35:141,1
-0.498,9.2703,0.5363,-0.8257,9.7518,0.6247,0.2564,-0.4824,-0.0535,-0.0447,-0.0256,0.1001,-3.25,-33.75,19.75,217.1,-83.76,51.81,15705,2015-10-07 16:20:35:241,1
-0.6321,9.3087,0.5746,-0.7742,9.7569,0.6114,0.2506,-0.356,-0.1077,0.1491,-0.0554,0.0639,-4.25,-34,20.25,214.35,-84.08,51.09,15805,2015-10-07 16:20:35:341,1
-0.249,9.2895,0.6704,-0.7239,9.762,0.5909,0.4695,-0.3378,0.144,0.0426,-0.0107,-0.0746,-4.5,-33.25,20.75,216.59,-84.55,52.26,15905,2015-10-07 16:20:35:441,1
0.4022,9.2512,0.8045,-0.6516,9.7689,0.5604,1.1082,-0.4993,0.1584,0.1129,0.0383,0.0277,-5,-35.25,21.5,213.24,-84.76,50.39,16005,2015-10-07 16:20:35:541,1
1.245,9.2129,0.8428,-0.492,9.7804,0.5223,1.5551,-0.4139,-0.0213,-0.196,-0.1129,0.1321,-3.75,-34.25,21,216.36,-85.14,49.01,16105,2015-10-07 16:20:35:641,1
0.7087,8.6,0.9385,-0.3709,9.7787,0.6408,1.1005,-1.1411,0.3488,0.0469,-0.1257,-0.1129,-4.5,-35.5,21,209.3,-85.8,43.29,16205,2015-10-07 16:20:35:741,1
-0.6129,8.9447,0.1532,-0.3598,9.7853,0.5377,-0.4492,-0.8594,-0.4304,-0.0874,-0.718,0.0405,-5,-34.25,20.75,197.27,-86.02,32.49,16304,2015-10-07 16:20:35:840,1
-1.8771,9.2703,0.8428,-0.3096,9.777,0.6967,-1.5195,-0.5059,0.3122,0.1023,-1.2037,0.0639,-3.5,-34.25,21,197.97,-85.73,28.16,16404,2015-10-07 16:20:35:940,1
-2.3367,9.5385,1.4557,-0.2717,9.7656,0.8548,-2.0782,-0.2179,0.4982,-0.2621,-1.0163,0.1044,-3.25,-34.25,20.75,193.43,-85.39,23.23,16504,2015-10-07 16:20:36:040,1
-3.6775,9.9407,1.6664,-0.2069,9.726,1.238,-3.6875,0.2891,0.9668,-0.6285,-0.3047,0.4155,-3,-35.75,19,181.98,-83.32,11.37,16604,2015-10-07 16:20:36:140,1
-2.7773,11.1282,2.0494,-0.0376,9.6998,1.4432,-2.745,1.4331,0.5754,0.4027,1.0738,0.3643,-3.25,-34.5,17.25,173.34,-81.53,1.49,16704,2015-10-07 16:20:36:240,1
-3.0646,10.8601,0.3639,-0.6844,9.7769,0.3387,-2.3802,1.0832,0.0253,1.3358,1.5936,-0.5795,-5.75,-35.25,17.5,174.86,-83.08,12.2,16804,2015-10-07 16:20:36:340,1
-2.2984,10.975,0.0192,-1.4456,9.663,-0.8412,-0.8528,1.3121,0.8603,0.9289,1.6128,-0.8053,-8,-34.5,20.5,258.04,-82.7,109.72,16904,2015-10-07 16:20:36:440,1
-2.7773,10.9367,-0.7087,-2.1812,9.3825,-1.839,-0.7236,1.4483,1.5596,0.5433,1.0077,-0.5774,-7.75,-30,25.5,268.32,-80.18,120.19,17004,2015-10-07 16:20:36:540,1
-0.7087,8.849,0.1149,-2.2389,9.2879,-2.2121,1.8921,-0.7936,2.0906,-0.0831,-0.0937,-0.0256,-6.5,-25.75,30,279.11,-71.9,131.16,17104,2015-10-07 16:20:36:640,1
1.9728,7.4891,-3.8307,-1.328,9.4968,-2.0536,3.3008,-2.0077,-1.7771,-0.4325,-0.6392,0.9928,-8.75,-26.5,31,299.84,-75.56,147.11,17205,2015-10-07 16:20:36:741,1
6.2441,7.1826,-1.6664,0.0319,9.7099,-1.3738,6.2122,-2.5273,-0.2926,-0.1981,-1.4296,0.995,-10.25,-25.25,30.75,319.3,-81.15,161.96,17305,2015-10-07 16:20:36:841,1
4.1755,8.351,-0.6704,1.1329,9.6619,-1.2391,2.9249,-0.6684,-0.0767,0.2152,-0.6775,0.8309,-11,-26.75,30.25,1,-82.06,-161.23,17405,2015-10-07 16:20:36:941,1
2.4134,7.8721,-1.8004,1.5975,9.6394,-0.8373,0.7123,-2.0466,-0.2524,0.2621,0.1768,0.032,-12.5,-27.5,28.75,47.73,-79.89,-116.71,17504,2015-10-07 16:20:37:040,1
2.241,8.4467,-0.8428,1.6606,9.634,-0.7742,0.8677,-1.0532,-0.2409,0.1619,0.0575,0.0405,-12.5,-28.75,27.5,50.69,-79.56,-114.33,17605,2015-10-07 16:20:37:141,1
2.5091,8.6574,-0.8428,1.7662,9.6229,-0.6718,0.7429,-0.9654,-0.1709,-0.1193,-0.017,-0.0256,-13.5,-28.5,27,49.34,-79.23,-115,17705,2015-10-07 16:20:37:241,1
2.7198,8.6957,-0.8045,1.7949,9.6184,-0.6592,0.9249,-0.9227,-0.1453,-0.2919,-0.0192,-0.1939,-13.5,-26.75,27.25,52.66,-78.65,-110.38,17805,2015-10-07 16:20:37:341,1
2.4325,8.5425,1.5131,1.7241,9.6537,-0.0587,1.3478,-0.8254,1.5069,-0.0788,0.1278,-0.3345,-13.5,-28,26.75,62.25,-79.57,-101.16,17905,2015-10-07 16:20:37:441,1
1.8004,8.0445,2.624,1.3935,9.6855,0.6483,0.6379,-1.6273,2.1658,-0.7222,0.4623,-0.4922,-13.75,-30,23.75,80.41,-80.84,-79.33,18005,2015-10-07 16:20:37:541,1
1.7047,8.3701,0.2682,0.881,9.7486,0.5996,0.0085,-1.4013,1.5958,0.4368,0.0746,-0.5646,-12.25,-30.5,21.5,102.88,-83.76,-55.76,18105,2015-10-07 16:20:37:641,1
0.6512,8.8107,0.5555,0.3104,9.797,0.3039,0.3409,-0.9864,0.2516,0.4005,-0.1214,-0.4176,-11,-31,21.5,98.55,-86.47,-59.28,18204,2015-10-07 16:20:37:740,1
0.2873,7.9296,1.0918,-0.1015,9.7929,0.51,0.3888,-1.8633,0.5818,0.2344,-0.2983,-0.6157,-7.75,-32,22.75,163.89,-87.56,2.19,18305,2015-10-07 16:20:37:841,1
-2.0303,9.1746,0.3639,-0.5397,9.7793,0.4942,-1.4905,-0.6047,-0.1303,-0.1172,-0.3963,-0.1321,-5.25,-30.25,22.5,214.2,-86.3,49.06,18405,2015-10-07 16:20:37:941,1
-3.3327,10.1897,0.4022,-0.6841,9.7671,0.5541,-2.3672,0.5196,0.1894,-0.2344,-0.0874,0.115,-4,-30.5,21.25,213.26,-85.06,47.75,18505,2015-10-07 16:20:38:041,1
-3.9073,10.6303,-0.7278,-0.7869,9.7517,0.6752,-3.1396,0.8786,-1.5562,-0.0682,-0.1406,0.4368,-2,-33.75,21,216.62,-83.71,47.95,18605,2015-10-07 16:20:38:141,1
-2.5474,10.6494,1.494,-0.7846,9.7374,0.8586,-2.7635,0.9127,0.103,0.2919,-0.1001,0.0554,-3,-32.5,19.75,211.68,-83.15,45.73,18705,2015-10-07 16:20:38:241,1
-0.9194,9.5002,0.1724,-0.7298,9.7526,0.7245,-0.1056,-0.2702,-0.2363,-0.1385,-0.032,0.1023,-3.75,-33.75,18.25,210.07,-84.02,47.99,18805,2015-10-07 16:20:38:341,1
-0.3831,9.232,1.3024,-0.7082,9.7394,0.9017,0.3306,-0.5078,0.4095,-0.0426,-0.0043,0.0213,-3,-35,18,205.96,-83.48,40.75,18904,2015-10-07 16:20:38:440,1
-0.9385,9.1746,1.0343,-0.7322,9.7422,0.8509,-0.2064,-0.5676,0.1834,0.0788,0.1726,-0.0533,-2.75,-34.25,18,206.02,-83.43,40.71,19005,2015-10-07 16:20:38:541,1
-0.2873,9.3087,0.9385,-0.6862,9.7491,0.8085,0.3989,-0.4405,0.1301,0.0341,0.1683,0.1449,-2.75,-34.5,18,205.48,-83.42,40.92,19105,2015-10-07 16:20:38:641,1
-0.3256,9.4427,0.5938,-0.6204,9.76,0.7262,0.2948,-0.3173,-0.1324,0.0256,0.0256,0.0852,-3.25,-32.75,18.25,205.93,-84.17,39.88,19205,2015-10-07 16:20:38:741,1
-0.3639,9.3661,0.498,-0.5921,9.7641,0.6939,0.2122,-0.4925,-0.1533,0.0469,0.1236,0.0362,-4.5,-34.25,18.5,206.9,-84.63,40.66,19307,2015-10-07 16:20:38:843,1
-0.4597,9.2703,0.6321,-0.5974,9.7668,0.6511,0.1781,-0.4958,-0.0831,0.1491,0.0575,-0.0298,-4.75,-33.5,19,203.1,-84.68,41.27,19405,2015-10-07 16:20:38:941,1
-0.0766,9.5193,0.5938,-0.592,9.7632,0.7064,0.4566,-0.2445,-0.009,0.0447,0.0383,-0.1513,-4.5,-33.75,19.25,204.29,-84.61,39.97,19505,2015-10-07 16:20:39:041,1
0.249,9.5002,0.3639,-0.6026,9.7665,0.6501,0.8516,-0.2663,-0.2862,0.1406,-0.1193,-0.0234,-4.75,-33.75,19.5,205.24,-84.63,40.92,19604,2015-10-07 16:20:39:140,1
1.8004,9.3278,1.0918,-0.5705,9.7711,0.6091,2.3709,-0.4433,0.4827,0.0746,-0.1172,-0.3025,-3.5,-33.5,19.5,206.92,-84.81,42.83,19704,2015-10-07 16:20:39:240,1
1.743,8.6766,1.1301,-0.5822,9.7718,0.5855,2.3251,-1.0952,0.5446,-0.0447,-0.0959,-0.2301,-2.25,-36,20.5,216.43,-85.26,46.58,19805,2015-10-07 16:20:39:341,1
0.4022,8.351,0.6321,-0.5904,9.7779,0.463,0.9927,-1.4269,0.1691,0.13,-0.4517,-0.2834,-2.75,-34.5,20.5,215.81,-85.53,48.06,19905,2015-10-07 16:20:39:441,1
-1.3599,8.4851,0.7087,-0.4945,9.7849,0.4264,-0.8655,-1.2998,0.2823,0.2812,-1.2314,0.1939,-2,-36,20,220.18,-85.66,50.83,20004,2015-10-07 16:20:39:540,1
-2.6624,9.3087,0.7853,-0.3128,9.7845,0.5794,-2.3496,-0.4759,0.2059,-0.326,-1.3785,0.3473,-1,-35.25,20.25,224.18,-86.41,51.37,20104,2015-10-07 16:20:39:640,1
-3.3136,10.2089,1.9154,-0.0756,9.7537,1.0151,-2.9507,0.2062,0.3065,-0.816,-0.9012,0.5412,-1.25,-36.5,19,181.05,-84.04,4.26,20204,2015-10-07 16:20:39:740,1
-3.62,11.7029,1.8771,0.017,9.667,1.6489,-3.637,2.0358,0.2282,-0.5795,0.5241,0.2024,-1,-37,16.5,176.14,-82.09,-1.73,20305,2015-10-07 16:20:39:841,1
-3.3902,10.4579,1.6664,-0.8889,9.6703,1.3658,-2.366,0.9862,0.5804,0.7904,1.7257,-0.6839,-3.25,-37.5,14.5,176.91,-79.35,3.16,20404,2015-10-07 16:20:39:940,1
-3.4093,10.094,0.3639,-1.7403,9.6393,0.4752,-1.6691,0.2886,0.1126,0.62,1.8088,-0.4027,-3.25,-37,15.5,214.99,-79.99,58.36,20504,2015-10-07 16:20:40:040,1
-3.5817,10.1323,2.0111,-2.1411,9.5691,0.1361,-1.3653,0.5795,1.9573,0.2365,1.5617,-0.5177,-3.5,-36,18.75,237.47,-77.36,86.36,20605,2015-10-07 16:20:40:141,1
-3.4285,9.3853,0.9385,-2.8094,9.3693,-0.7024,0.0513,-0.2139,1.5069,0.5369,0.3324,-0.1172,-3.5,-32.25,21.5,250.17,-72.96,101.51,20705,2015-10-07 16:20:40:241,1
2.6815,7.6806,-0.5555,-2.2226,9.5045,-0.9462,6.1874,-2.0537,1.789,0.2727,-1.2229,-0.3409,-2.25,-30.25,24.75,266.51,-74.06,110.88,20805,2015-10-07 16:20:40:341,1
5.4013,6.4165,-0.0958,-1.6077,9.6076,-1.1311,6.8242,-3.2247,0.997,-0.1854,-0.7393,0.7691,-4.5,-30,26.25,283,-78.44,125.13,20905,2015-10-07 16:20:40:441,1
4.5777,6.9911,-1.6089,-0.0845,9.6576,-1.701,4.3749,-2.5516,-0.5783,0.9353,-1.2762,1.2996,-5.25,-28.75,28.75,325.05,-80.99,160.26,21005,2015-10-07 16:20:40:541,1
2.739,8.1211,-1.6855,0.811,9.6443,-1.5814,1.8775,-1.5296,-0.1716,-0.5177,0.4261,0.2471,-5.75,-27.25,31.25,12.18,-79.24,-159,21105,2015-10-07 16:20:40:641,1
2.4517,8.6191,-1.4174,1.0045,9.6711,-1.2768,1.4472,-1.052,-0.1405,0.0575,0.3686,-0.0107,-7.25,-28.5,31.5,27.64,-80.4,-144.16,21209,2015-10-07 16:20:40:745,1
2.2027,9.0214,-2.3367,1.1545,9.6346,-1.4188,1.1582,-0.7151,-1.0521,-0.0362,0.1449,0.1129,-8.75,-27.75,31,27.69,-79.25,-140.86,21305,2015-10-07 16:20:40:841,1
1.9537,8.3893,-1.7238,1.2037,9.622,-1.4624,0.75,-1.2327,-0.2614,-0.0852,-0.0639,-0.2557,-9.5,-27.5,31,31.64,-79.24,-139.57,21405,2015-10-07 16:20:40:941,1
2.3176,8.734,-1.2258,1.1902,9.6782,-1.042,1.1274,-0.9442,-0.1839,-0.4155,0.4133,-0.2429,-9.25,-27,30.5,29.82,-79.42,-138.81,21505,2015-10-07 16:20:41:041,1
2.3367,8.9064,-0.2298,1.0208,9.7315,-0.6531,0.8371,-0.8825,0.1551,-0.3089,0.3643,-0.2599,-10,-27.5,30,43.34,-82.9,-122.61,21604,2015-10-07 16:20:41:140,1
0.0383,9.1171,0.3448,0.7034,9.7792,-0.2091,-0.3969,-0.911,0.0368,-0.2812,0.2684,-0.49,-10.25,-28.25,28,57.26,-85.71,-106.56,21704,2015-10-07 16:20:41:240,1
-0.6704,8.2552,1.3791,0.2489,9.8026,0.1327,-0.9192,-1.5474,1.2464,-0.2642,0.1534,-0.3409,-9.25,-30,26.5,65.45,-86.47,-99.32,21804,2015-10-07 16:20:41:340,1
-0.3448,8.7915,1.1109,-0.1789,9.8027,0.2139,0.1024,-1.1064,0.5464,0.1981,-0.1236,-0.539,-8.25,-31.75,25,144.95,-88.71,-16.76,21904,2015-10-07 16:20:41:440,1
-1.0343,8.8681,-0.0383,-0.7546,9.7686,0.4188,0.1829,-1.3632,0.266,0.032,-0.1683,-0.4431,-5.25,-30.5,24.5,220.63,-85.65,55.2,22004,2015-10-07 16:20:41:540,1
-1.9728,8.6957,1.3408,-1.2324,9.7061,0.6656,-0.0816,-0.9989,0.468,-0.3047,-0.1321,-0.669,-3.25,-31.75,24.5,229.32,-83,62.72,22105,2015-10-07 16:20:41:641,1
-2.2027,9.2512,1.2833,-1.4648,9.6591,0.852,-0.7545,-0.5378,0.127,-0.5816,0.0128,-0.1449,-2.5,-32.25,22.5,230.23,-80.8,64.72,22205,2015-10-07 16:20:41:741,1
-2.873,9.6917,0.0383,-1.4043,9.641,1.1175,-1.4701,0.0414,-0.998,-0.3302,-0.4815,0.2642,0,-33.75,21.25,224.93,-79.77,56.28,22305,2015-10-07 16:20:41:841,1
-4.8459,11.1666,0.7087,-1.2395,9.6591,1.1554,-3.5906,1.5089,-0.4422,-0.1193,-0.473,0.6328,0.25,-35.5,19.75,217.64,-79.68,48.3,22404,2015-10-07 16:20:41:940,1
-2.2793,10.4004,1.3216,-0.9675,9.6923,1.1373,-1.2755,0.7146,0.1606,0.1726,-0.0746,0.2919,0,-36,18,212.32,-80.68,42,22504,2015-10-07 16:20:42:040,1
-0.3831,9.481,1.3024,-0.7927,9.7284,0.9486,0.4096,-0.2474,0.3538,0.1534,0.0128,0.0916,-1.25,-37.25,16.25,211.66,-81.87,40.46,22604,2015-10-07 16:20:42:140,1
-0.3065,9.1554,1.4748,-0.7574,9.7337,0.923,0.301,-0.788,0.544,-0.032,0.0533,0.032,-2.75,-36.25,17.5,205.46,-83.15,40.58,22704,2015-10-07 16:20:42:240,1
-0.3831,9.0022,1.4174,-0.7507,9.7314,0.9525,0.3395,-0.6716,0.4717,-0.0128,0.1832,0.0021,-3.5,-36,18.5,204.02,-82.9,38.24,22804,2015-10-07 16:20:42:340,1
-0.2107,9.3087,1.0726,-0.7343,9.7406,0.8675,0.632,-0.3756,-0.2085,-0.1065,0.2642,0.1044,-3.5,-35.5,17.75,205.45,-83.34,40.25,22904,2015-10-07 16:20:42:440,1
-0.1341,9.3087,0.9385,-0.6706,9.7459,0.8592,0.5557,-0.4564,-0.0547,0.1001,0.115,-0.1236,-4.25,-36.25,18.75,201.81,-83.62,37.97,23005,2015-10-07 16:20:42:541,1
-0.1341,9.1937,0.747,-0.6334,9.7536,0.7982,0.4419,-0.6365,-0.0703,0.1129,0.098,-0.0213,-4.5,-35,18.75,202.54,-84.04,38.43,23105,2015-10-07 16:20:42:641,1
-0.2873,9.2512,0.7278,-0.6255,9.7596,0.7272,0.3382,-0.5084,7.0000E-04,0.0383,0.0128,-0.017,-4.75,-34,19.5,203.13,-84.39,40.7,23204,2015-10-07 16:20:42:740,1
0.1532,9.481,0.8619,-0.5746,9.759,0.7756,0.7278,-0.278,0.0863,-0.1342,0.0383,-0.0874,-4.25,-36,19.25,205.97,-84.49,41.32,23304,2015-10-07 16:20:42:840,1
1.1684,9.7683,0.4022,-0.5463,9.7698,0.6498,1.7146,-0.0015,-0.2476,0.245,-0.0746,-0.1278,-5.75,-35.25,19.5,198.68,-84.38,36.63,23404,2015-10-07 16:20:42:940,1
2.0494,9.0597,0.8045,-0.5637,9.7733,0.5783,2.6829,-0.8662,0.4189,-0.2109,-0.2365,-0.1981,-5.25,-34.5,19.25,206.01,-85.28,44.26,23504,2015-10-07 16:20:43:040,1
1.3599,8.0828,1.3216,-0.5981,9.7599,0.7466,1.6168,-1.6371,0.7337,-0.1555,-0.5646,-0.1619,-4.25,-34.75,19.75,203.64,-84.4,38.7,23604,2015-10-07 16:20:43:140,1
-0.4022,8.6,1.4174,-0.5395,9.749,0.9149,0.1373,-1.149,0.5024,-0.375,-0.9012,0.0149,-3,-36.25,20,198.58,-83.78,30.53,23705,2015-10-07 16:20:43:241,1
-1.7621,9.2895,1.3982,-0.4137,9.7456,1.0111,-1.6165,-0.4204,0.0792,0.1129,-1.3231,0.1534,-2.5,-37.25,19.25,193.45,-83.6,22.25,23804,2015-10-07 16:20:43:340,1
-2.9497,9.481,0.9577,-0.3108,9.7579,0.9259,-2.6836,-0.1846,-0.4496,0.522,-1.7428,0.2344,-0.25,-39,17.5,192.6,-83.51,18.29,23905,2015-10-07 16:20:43:441,1
-4.1946,9.9216,1.5323,-0.2393,9.7555,0.9713,-3.9554,0.1661,0.561,-0.5433,-0.8096,0.5177,0,-38.25,18.5,194.24,-84.69,17.08,24005,2015-10-07 16:20:43:541,1
-5.4013,11.1474,3.5243,-0.4648,9.6932,1.4126,-4.9365,1.4542,2.1117,0.1129,1.5127,0.098,0.25,-37,18.75,187.64,-82.23,9.58,24105,2015-10-07 16:20:43:641,1
-4.1372,10.8218,1.0534,-1.1601,9.7063,0.7821,-2.9771,1.1155,0.2714,0.5305,2.4821,-0.1854,-0.5,-37.75,17.5,212.15,-81.58,41.36,24205,2015-10-07 16:20:43:741,1
-3.1029,9.3853,1.2258,-1.7348,9.6513,0.1169,-1.2874,0.1805,1.6466,0.6221,1.2613,-0.5412,-2.5,-35.5,18.75,231.21,-81.53,68.81,24305,2015-10-07 16:20:43:841,1
-3.1029,10.4579,1.0343,-2.0558,9.5828,-0.3375,-1.0471,0.8751,1.3718,0.326,0.8288,0.0916,-3.5,-35,21.25,251.73,-77.73,99.32,24405,2015-10-07 16:20:43:941,1
2.3942,9.1554,1.1684,-1.8176,9.6123,-0.6857,4.3516,0.469,1.6719,-0.4687,0.3196,0.3558,-3,-34.5,24,265.55,-77.33,110.93,24505,2015-10-07 16:20:44:041,1
5.2864,6.7229,0,-0.8982,9.7425,-0.6688,6.231,-3.5838,0.4044,0.2386,-1.0013,0.6669,-3.75,-30.25,26.5,284.69,-81.8,122.06,24605,2015-10-07 16:20:44:141,1
6.5505,6.0908,0.6321,0.5099,9.736,-1.0582,6.7428,-4.22,1.4622,1.4658,-1.2314,0.8607,-6.5,-29.5,27,351.75,-85.09,-174.95,24705,2015-10-07 16:20:44:241,1
6.4165,8.7724,0.7278,1.7621,9.5916,-1.0332,4.6964,-0.8163,1.8543,-1.1356,0.4474,0.9438,-8.75,-30.25,29,52.52,-77.98,-120.38,24805,2015-10-07 16:20:44:341,1
2.2984,8.102,-2.8539,1.7467,9.5978,-1.0004,0.5517,-1.4959,-1.8535,0.245,0.2578,-0.3345,-11,-27.75,30.5,54.87,-78.41,-117.51,24905,2015-10-07 16:20:44:441,1
2.624,8.6957,-2.0111,1.8556,9.5801,-0.9739,0.7684,-0.8844,-1.0373,0.1491,0.196,0.0341,-13.5,-28.5,29.75,51.13,-78.12,-115.89,25005,2015-10-07 16:20:44:541,1
2.7773,9.0405,-1.8196,1.9306,9.5576,-1.0465,0.8467,-0.5171,-0.7731,0.0213,0.049,-0.0405,-13.75,-29,29.25,44.78,-77.06,-118.46,25105,2015-10-07 16:20:44:641,1
2.7198,9.1171,-1.6281,1.9838,9.541,-1.0974,0.3998,-0.4642,-0.5899,-0.0234,-0.1832,-0.0682,-14.25,-27.25,29.5,44.95,-77.04,-118.04,25205,2015-10-07 16:20:44:741,1
2.7007,8.6,-0.9577,2.0029,9.5483,-0.994,0.8893,-0.8334,0.5534,-0.1278,-0.0746,-0.1598,-13.75,-29.5,30.25,46.88,-76.63,-117.52,25305,2015-10-07 16:20:44:841,1
3.0454,8.2552,-0.8236,1.8418,9.6002,-0.7835,1.2224,-1.3523,-0.0873,-0.5135,0.3835,-0.4197,-13.25,-29.25,29,51.95,-78.22,-113.04,25404,2015-10-07 16:20:44:940,1
2.5666,8.4467,-0.0958,1.4496,9.6917,-0.3743,1.1125,-1.5057,0.5676,0.0277,0.4005,-0.784,-12.25,-29.5,28.25,57.44,-79.02,-109.21,25504,2015-10-07 16:20:45:040,1
1.9154,8.1977,0.1724,0.9203,9.7634,-0.0013,1.2198,-1.5898,0.7129,-0.0618,0.098,-0.7649,-12,-29.75,27.25,71.23,-84.61,-90.08,25604,2015-10-07 16:20:45:140,1
1.7047,8.3318,-0.0383,0.4297,9.7949,0.2119,1.2125,-1.4027,0.4012,-0.0234,-0.0298,-0.7734,-10.25,-31.75,25.25,97.74,-87.2,-63.75,25704,2015-10-07 16:20:45:240,1
-0.1341,8.102,1.1684,-0.1225,9.7842,0.6524,-0.0116,-1.6822,0.5159,-0.2557,-0.0405,-0.441,-8.5,-32,23.75,163.76,-86.69,1.05,25804,2015-10-07 16:20:45:340,1
-1.3599,8.6574,1.0534,-0.4801,9.7511,0.9255,-1.2246,-0.9021,0.4918,-0.2706,-0.1108,-0.2961,-6,-33,22.75,191.21,-83.9,27.42,25905,2015-10-07 16:20:45:441,1
-4.6543,9.5577,-0.1532,-0.8367,9.7378,0.8039,-3.8177,0.1455,-1.0912,-0.1214,-0.1321,0.2898,-3.25,-34.25,21.5,200.79,-83.81,36.69,26005,2015-10-07 16:20:45:541,1
-3.4285,11.0708,-0.2873,-0.9261,9.7192,0.9217,-2.3108,1.5623,-0.5961,0.4218,-0.3728,0.0064,-0.5,-34.25,22,218.07,-82.34,45.14,26104,2015-10-07 16:20:45:640,1
-3.2753,9.6151,1.2641,-1.0545,9.6956,1.0266,-2.5847,-0.1954,0.6589,0.4048,-0.1811,0.032,-0.5,-35,20.75,217.32,-81.37,45.77,26204,2015-10-07 16:20:45:740,1
-1.7621,9.979,0.3256,-1.0726,9.7059,0.9028,-0.6951,0.1946,-0.3914,0.098,-0.0277,0.1172,-1.75,-38.25,20,215.43,-81.78,49.91,26304,2015-10-07 16:20:45:840,1
-1.3216,9.1554,0.9385,-1.0191,9.7065,0.9572,-0.1206,-0.5125,0.2762,-0.0405,-0.0469,0.0916,-2,-36.25,20,216.62,-81.82,51.31,26404,2015-10-07 16:20:45:940,1
-0.3448,9.3278,0.8428,-0.9176,9.7175,0.9474,0.4388,-0.3706,-0.0855,-0.0213,0.0895,0.0064,-2,-35.75,19,210.83,-82.27,44.08,26505,2015-10-07 16:20:46:041,1
-0.3639,9.2895,0.5938,-0.86,9.7266,0.9083,0.3921,-0.4334,-0.247,0.098,0.3111,-0.0043,-3,-36.25,19,207.64,-82.51,42.92,26605,2015-10-07 16:20:46:141,1
-0.249,9.4619,0.5363,-0.8323,9.7367,0.8211,0.509,-0.37,-0.3658,-0.0043,0.2471,-0.0298,-4,-36,20,208.48,-83.15,45.39,26706,2015-10-07 16:20:46:242,1
-0.0766,9.5385,0.2107,-0.8365,9.7435,0.7319,0.8323,-0.3591,-0.5522,-0.0213,0.0831,-0.0192,-3.75,-34.75,19,211.03,-83.49,48.81,26805,2015-10-07 16:20:46:341,1
0.7661,9.5768,0.8428,-0.7789,9.7455,0.7673,1.5832,-0.2267,0.0825,-0.0149,0.0341,0.0064,-3.75,-35.25,19.25,208.23,-83.6,45.43,26910,2015-10-07 16:20:46:446,1
1.3408,8.983,1.1109,-0.7524,9.7553,0.662,2.222,-0.8307,0.4196,0.1257,0.049,-0.1364,-3,-37.75,19.5,214.08,-84.13,48.66,27005,2015-10-07 16:20:46:541,1
1.3216,8.6,1.2833,-0.673,9.7663,0.5802,1.8854,-1.261,0.9574,-0.0234,-0.1854,0.1321,-3.75,-36,19.75,213.03,-84.8,49.23,27105,2015-10-07 16:20:46:641,1
-0.3065,8.6191,0.6512,-0.6428,9.7695,0.5612,0.3363,-1.1503,0.09,-0.0213,-0.8884,-0.2557,-2.75,-35.75,19.75,213.6,-84.92,46.76,27205,2015-10-07 16:20:46:741,1
-1.7047,8.7149,0.9768,-0.5792,9.7681,0.6481,-1.1254,-1.0532,0.3288,0.3665,-1.3827,0.0597,-1.5,-35,19.5,214.05,-84.91,41.79,27304,2015-10-07 16:20:46:840,1
-3.0646,9.4427,0.5171,-0.2663,9.784,0.6103,-2.7983,-0.3413,-0.0932,0.1321,-1.4807,0.3792,-1,-37,20,204.4,-85.78,30.43,27405,2015-10-07 16:20:46:941,1
-3.1795,10.6303,1.9728,0.151,9.7495,1.0461,-3.3305,0.8807,0.9267,-0.4666,-0.6519,0.7798,-1.5,-36.25,19.5,170.67,-83.81,-8.21,27505,2015-10-07 16:20:47:041,1
-3.9648,12.0859,2.0494,0.0564,9.7389,1.1491,-4.0212,2.347,0.9003,-0.0724,0.7734,-0.1577,-1.75,-38,17.75,167.38,-83.35,-9.33,27605,2015-10-07 16:20:47:141,1
-3.8882,12.2392,1.6855,-0.9878,9.7435,0.5092,-2.977,2.5531,0.1612,1.3806,1.4871,-1.0163,-3,-38,16.5,181.74,-83.01,12.22,27705,2015-10-07 16:20:47:241,1
-4.7118,11.7412,-0.3448,-2.0925,9.5706,-0.4426,-2.2937,1.481,1.0555,1.0908,1.7087,-1.338,-1.75,-36.5,19.25,252.69,-77.4,101.94,27805,2015-10-07 16:20:47:341,1
-3.8116,9.1171,-0.4405,-3.1782,9.1356,-1.6156,1.3777,1.4946,0.907,0.1214,0.6115,-0.588,-1.75,-33.75,23.5,260.11,-68.68,116.95,27905,2015-10-07 16:20:47:441,1
3.2753,8.0062,-1.0726,-2.6454,9.297,-1.6546,6.1888,-1.4249,0.7352,0.2365,0.6392,0.7159,-1.25,-31.75,25.75,260.11,-68.68,116.95,28005,2015-10-07 16:20:47:541,1
5.3439,5.4971,0.0383,-1.3511,9.5643,-1.6938,6.6949,-4.0672,1.7321,-0.0043,-1.1057,0.4325,-2.75,-27,29,299.87,-76.65,137.37,28105,2015-10-07 16:20:47:641,1
6.4356,6.7038,-1.245,0.125,9.5764,-2.1089,6.3344,-4.1641,-0.0589,0.7478,-0.6732,1.3188,-4.75,-27.25,30.25,352.28,-77.56,-176.61,28205,2015-10-07 16:20:47:741,1
3.486,8.4851,-2.6432,1.2725,9.4594,-2.2518,2.2135,-0.9744,-0.3914,-0.4751,0.3515,0.0511,-6,-26.5,32.5,24.92,-74.71,-150.53,28305,2015-10-07 16:20:47:841,1
3.0454,8.7915,-3.1795,1.5507,9.4323,-2.1902,1.4947,-0.6408,-0.9893,0.0128,0.3324,0.0937,-9.5,-26,33.25,26.23,-74.12,-144.7,28405,2015-10-07 16:20:47:941,1
3.2178,8.8681,-2.988,1.6911,9.3658,-2.365,1.5267,-0.4976,-0.623,-0.2493,0.1768,-0.0703,-10.75,-24.75,32.25,22.31,-72.75,-144.43,28504,2015-10-07 16:20:48:040,1
2.7773,7.8338,-2.5474,1.6772,9.3766,-2.3316,1.1001,-1.5428,-0.2159,-0.1364,0.1555,-0.0298,-12,-24.25,32.25,21.53,-72.75,-144.83,28605,2015-10-07 16:20:48:141,1
2.8539,8.4467,-1.4557,1.7116,9.4476,-1.9962,1.1423,-1.0008,0.5405,-0.4964,0.441,-0.1854,-12.5,-24.25,31.5,25.57,-74.45,-139.39,28705,2015-10-07 16:20:48:241,1
2.6432,8.351,-0.5363,1.5463,9.5917,-1.3335,1.0969,-1.2408,0.7972,-0.7713,0.3047,-0.4218,-11.5,-25.5,30.5,35.61,-77.98,-130.77,28804,2015-10-07 16:20:48:340,1
2.2984,8.6383,-1.4174,1.2211,9.6952,-0.8266,1.0773,-1.0569,-0.5908,-1.0376,0.3494,-0.6967,-12.5,-27,28,37.72,-81.35,-124.1,28905,2015-10-07 16:20:48:441,1
0.0575,7.9104,0.0192,0.4059,9.7943,-0.2791,-0.3485,-1.8838,0.2983,-0.4005,-0.4218,-0.8416,-11.25,-27.25,25,52.75,-84.23,-109.49,29005,2015-10-07 16:20:48:541,1
-0.6512,8.2935,2.7581,-0.0398,9.7999,0.3627,-1.1243,-1.7003,1.7771,0.2663,-0.1726,-0.2557,-7.75,-28,24,47.69,-88.41,-113.05,29105,2015-10-07 16:20:48:641,1
-2.5283,9.3278,1.1875,-0.4363,9.7937,0.2535,0.0569,-0.6555,0.964,-0.2599,0.1513,0.0575,-5.75,-31.5,22.25,236.39,-88.32,72.77,29204,2015-10-07 16:20:48:740,1
-2.3559,9.4236,0.4214,-0.5378,9.7795,0.4922,-1.5865,-0.3992,-0.3769,-0.5646,0.2898,0.3217,-4,-31.5,22,233.44,-86.71,67.37,29305,2015-10-07 16:20:48:841,1
-3.735,10.5536,-0.1532,-0.5353,9.7679,0.6867,-2.6611,0.9942,-1.2039,0.0575,-0.0021,0.4517,-1.5,-30.75,21.75,216.21,-84.91,37.94,29404,2015-10-07 16:20:48:940,1
-1.6855,11.0708,0.3256,-0.4215,9.7736,0.6847,-1.2641,1.2972,-0.3591,0.3686,-0.1214,0.017,-2.75,-32.25,20,200.54,-85.3,31.61,29505,2015-10-07 16:20:49:041,1
-0.1149,9.6151,0.9385,-0.3845,9.7801,0.6096,-0.0236,-0.1636,0.5258,-0.2237,0.1555,-0.115,-3.5,-30.5,19.5,208.09,-86.21,39.39,29604,2015-10-07 16:20:49:140,1
-0.4214,8.7532,0.6512,-0.4445,9.7814,0.5445,0.0231,-1.0282,0.1068,-0.0362,0.1683,0.1704,-5,-31.75,18.75,201.4,-85.96,38.42,29705,2015-10-07 16:20:49:241,1
0.0575,9.1746,0.4214,-0.4506,9.786,0.4492,0.5081,-0.6114,-0.0279,0.1044,0.1236,0.0298,-5.25,-32.75,18.75,207.51,-86.28,45.09,29804,2015-10-07 16:20:49:340,1
0.3256,9.347,0.6512,-0.3972,9.7908,0.3909,0.7228,-0.4438,0.2603,0.1044,0.0234,-0.032,-5.75,-31.75,18.75,207.51,-86.28,45.09,29905,2015-10-07 16:20:49:441,1
0.3831,9.2703,0.0958,-0.3506,9.7973,0.2446,0.6954,-0.5653,-0.2446,0.1044,-0.0426,0.0085,-6.25,-31.5,19.75,205.76,-86.74,45.46,30004,2015-10-07 16:20:49:540,1
0.3639,9.347,-0.0766,-0.3014,9.8007,0.1591,0.6845,-0.5495,-0.3314,-0.0192,-0.0554,0.0703,-5.5,-32.25,19.75,224.53,-87.78,60.96,30104,2015-10-07 16:20:49:640,1
0.6895,9.4044,0.7661,-0.2753,9.8002,0.2241,0.9648,-0.3958,0.542,-0.0107,-0.0703,0.0021,-5,-32,21,228.41,-88.06,63.94,30205,2015-10-07 16:20:49:741,1
1.4748,9.3087,0.5938,-0.2558,9.8001,0.2498,1.7307,-0.4915,0.3439,0.1662,-0.0277,-0.1065,-5,-31.25,19.75,209.9,-87.85,45.54,30304,2015-10-07 16:20:49:840,1
1.8962,8.5808,0.9577,-0.245,9.7991,0.2964,2.1412,-1.2183,0.6613,-0.1236,-0.1917,-0.2258,-4.5,-29,20.5,214.41,-88.04,46.69,30404,2015-10-07 16:20:49:940,1
1.0726,8.2361,0.9385,-0.2313,9.7935,0.4529,1.3039,-1.5574,0.4856,-0.1875,-0.2834,-0.0234,-4,-30.75,19.5,200.79,-87.38,33.49,30505,2015-10-07 16:20:50:041,1
-1.1301,8.5425,1.2067,-0.0739,9.7945,0.4827,-1.0562,-1.252,0.7239,-0.3004,-0.9566,0.3579,-3,-31.25,19,190.26,-87.16,22.35,30605,2015-10-07 16:20:50:141,1
-2.2601,9.6151,0.0383,0.1097,9.7994,0.3595,-2.2166,-0.0694,0.0044,0.1513,-1.1484,0.3665,-2.25,-32.75,18,179.75,-87.15,8.7,30705,2015-10-07 16:20:50:241,1
-2.7007,10.6494,1.4174,0.3262,9.7771,0.6866,-3.0268,1.0638,0.6542,-0.424,-0.7457,0.3196,-3.5,-33.75,17.5,147.64,-87.21,-25.65,30805,2015-10-07 16:20:50:341,1
-3.9073,11.5688,1.2258,0.1596,9.7656,0.8824,-4.037,1.9571,0.4816,-0.1087,-0.049,0.1278,-3.25,-33.5,17.25,153.4,-85.11,-20.69,30905,2015-10-07 16:20:50:441,1
-4.3096,11.3581,2.6815,-0.482,9.7475,0.9612,-3.9194,1.6287,1.4674,0.7414,1.3422,-0.522,-3.25,-33.75,15.75,181.37,-84.04,12.28,31005,2015-10-07 16:20:50:541,1
-4.5011,11.0516,1.1109,-1.404,9.7036,0.197,-3.0971,1.348,0.9139,0.946,2.0964,-0.6924,-5,-33.5,15,219.74,-83.17,67.13,31105,2015-10-07 16:20:50:641,1
-4.4245,9.7492,0.4214,-2.6598,9.3647,-1.1824,-1.9893,0.8618,1.5583,0.9417,1.3508,-0.9119,-3.25,-35.25,16.75,250.33,-75.31,109.62,31205,2015-10-07 16:20:50:741,1
-0.4214,6.3398,-0.1341,-2.9701,9.213,-1.5716,0.153,-2,3.1009,0.032,0.5752,0.0554,-2,-31.5,21.5,254.82,-72.73,113.97,31305,2015-10-07 16:20:50:841,1
4.3096,9.0405,-2.7773,-2.3284,9.3708,-1.714,3.8607,-1.0581,-0.9484,-0.2407,-0.3047,0.6967,0,-27.5,25.75,277.06,-71.73,117.31,31405,2015-10-07 16:20:50:941,1
6.3973,9.2895,-3.9456,-1.4196,9.5123,-1.916,7.3381,-0.9315,-1.953,0.1108,-0.8884,0.8203,-1.5,-26.5,27.5,297.68,-75.7,132.48,31505,2015-10-07 16:20:51:041,1
4.9991,7.5657,-2.624,-0.0862,9.5113,-2.3872,4.1467,-2.0605,-0.505,0.228,-0.6519,0.4922,-4.25,-24.75,28.75,339.25,-76.93,171.53,31605,2015-10-07 16:20:51:141,1
2.8156,7.2018,-2.5666,0.551,9.4796,-2.4505,2.3372,-2.2886,-0.1429,-0.0107,0.1023,0.392,-4.25,-23.25,30.25,2.9,-75.49,-170.15,31705,2015-10-07 16:20:51:241,1
1.9537,8.2361,-3.1412,0.8928,9.4823,-2.3364,1.1251,-1.2392,-0.753,-0.3686,0.4346,0.1598,-5.25,-23,31,11.43,-75.06,-161.93,31805,2015-10-07 16:20:51:341,1
1.992,8.9064,-3.1603,1.0976,9.4607,-2.337,0.9275,-0.5572,-0.8199,-0.0149,-0.0362,0.0447,-6.5,-22.25,31,16.14,-75.09,-156.28,31904,2015-10-07 16:20:51:440,1
2.0877,8.7724,-1.8004,1.1189,9.49,-2.204,0.9497,-0.9092,0.0396,-0.0234,0.196,-0.1513,-5.75,-21.25,30.25,19.92,-75.36,-152.77,32005,2015-10-07 16:20:51:541,1
2.7964,8.6766,-2.0303,0.9945,9.545,-2.0184,1.8019,-0.8684,-0.0119,-0.6583,0.3856,-0.5667,-7.25,-23.25,29.25,15.83,-76.74,-153.77,32105,2015-10-07 16:20:51:641,1
2.5091,8.4084,-0.2298,0.4712,9.7071,-1.312,1.8655,-1.4518,1.0439,-0.3004,0.441,-0.8586,-6,-23.5,30,14.36,-80.5,-156.28,32205,2015-10-07 16:20:51:741,1
1.1684,8.3701,-0.0192,-0.1598,9.7623,-0.9183,1.2706,-1.3912,0.9175,-0.343,0.2855,-0.5369,-5.25,-24.25,27.5,1.93,-82.5,-166.59,32304,2015-10-07 16:20:51:840,1
-0.3448,7.7955,0.0383,-0.4783,9.7923,-0.2311,0.171,-1.9896,0.4319,-0.9268,0.2578,0.1278,-3.25,-24.75,26.25,339.98,-84.55,170.13,32405,2015-10-07 16:20:51:941,1
-0.2298,8.2744,-0.6129,-0.7331,9.7791,0.0453,-0.4544,-1.4473,-0.6008,-0.3089,-0.228,-0.1129,-1.25,-27.75,23.75,252.33,-85.92,79.21,32505,2015-10-07 16:20:52:041,1
-0.7853,8.983,-0.498,-0.656,9.783,0.182,-0.1293,-0.7999,-0.68,-0.3984,-0.4858,-0.0724,-1,-29.5,21.5,247.32,-85.59,75.24,32605,2015-10-07 16:20:52:141,1
-3.5817,9.9216,0.2107,-0.5376,9.7791,0.5002,-3.0441,0.1425,-0.2895,-0.3388,-0.2088,0.6456,0,-31.75,20.5,222.7,-85.71,47.06,32705,2015-10-07 16:20:52:241,1
-3.2561,12.0285,-0.7087,-0.2107,9.7892,0.5461,-3.0263,2.2393,-0.7185,0.294,-0.3324,0.735,0,-32.5,20,210.13,-86.53,32.88,32804,2015-10-07 16:20:52:340,1
-1.6664,11.6454,-0.7853,6.0000E-04,9.7955,0.4675,-1.8968,1.6775,-0.6016,-0.0682,-0.2706,0.2557,-1.5,-32,19.25,180.45,-87.39,3.5,32904,2015-10-07 16:20:52:440,1
0,10.0173,0.8045,0.1169,9.7912,0.5375,-0.3276,0.2261,0.1712,0.1619,-0.0874,0.1129,-2.75,-32.5,17.75,164.04,-86.59,-8.11,33005,2015-10-07 16:20:52:541,1
0.5363,9.2512,1.1492,0.1374,9.7909,0.5379,0.3989,-0.5397,0.6114,0.1214,-0.0192,-0.0256,-3.75,-34,18,156.08,-86.85,-13.71,33105,2015-10-07 16:20:52:641,1
0.7087,9.4427,0.7661,0.0837,9.7937,0.4978,0.5867,-0.3701,0.4024,-0.0277,0.1726,-0.1214,-4.25,-33.5,18.5,160.04,-87.1,-9.73,33204,2015-10-07 16:20:52:740,1
0.3065,9.1937,0.6704,0.0015,9.7981,0.409,0.4582,-0.5469,0.1465,0.1406,0.1577,0.0234,-4.25,-33.25,18.5,166.95,-87.44,-2.13,33304,2015-10-07 16:20:52:840,1
0.249,9.098,0.0575,-0.0277,9.8019,0.3036,0.3327,-0.57,-0.0681,0.0874,0.147,-0.0703,-3.25,-34,18.5,173.95,-88,2.55,33405,2015-10-07 16:20:52:941,1
0.0383,9.2512,0.1341,-0.0427,9.8033,0.2512,0.1959,-0.5905,-0.232,0.0511,0.0149,-0.1342,-3.25,-34.25,20,179.69,-88.5,8.21,33504,2015-10-07 16:20:53:040,1
0.6512,9.6343,0.498,-0.057,9.8021,0.294,0.7274,-0.1678,0.2232,0.1768,-0.0682,-0.0469,-4,-32.5,19.5,179.28,-88.45,10.56,33605,2015-10-07 16:20:53:141,1
1.0534,9.4044,0.6321,-0.0496,9.8031,0.2583,1.1222,-0.3795,0.2588,0.0511,0.1534,-0.0341,-3.25,-32.5,19.25,186.5,-88.58,15.73,33705,2015-10-07 16:20:53:241,1
1.9345,9.5002,0.4788,-0.0569,9.8036,0.2396,1.7616,-0.4183,-0.2013,-0.0831,0.0256,-0.1129,-3.5,-33.5,19.75,175.9,-88.42,7.02,33805,2015-10-07 16:20:53:341,1
1.4174,8.7724,-0.4405,-0.1076,9.8052,0.1319,1.525,-1.0328,-0.5724,0.2919,-0.1427,-0.2216,-2.75,-32.5,20.75,179.3,-88.47,7.41,33904,2015-10-07 16:20:53:440,1
0.3448,8.2361,0.2873,-0.1025,9.8019,0.2873,0.4473,-1.5659,0,0.0149,-0.3281,-0.0874,-2.5,-33,20.5,212.94,-89.01,39.22,34005,2015-10-07 16:20:53:541,1
-0.2873,8.3893,0.4022,0.1074,9.7985,0.384,-0.3947,-1.4093,0.0183,-0.0618,-0.7649,0.2173,-1,-34.25,20.5,175.69,-87.97,-1.83,34105,2015-10-07 16:20:53:641,1
-2.0111,9.347,-0.0575,0.4636,9.7844,0.4695,-2.4796,-0.2995,-0.3901,-0.6221,-1.093,0.7159,-1.25,-34.25,19,140.5,-87.11,-39.73,34204,2015-10-07 16:20:53:740,1
-1.9537,11.4922,1.5897,0.9084,9.7249,0.8785,-3.0091,1.8867,0.6762,-0.3643,-0.6498,0.4389,-3.5,-34,17.75,132.67,-84.86,-44.95,34305,2015-10-07 16:20:53:841,1
-2.8539,11.1666,2.2601,0.6244,9.7221,1.1232,-3.4783,1.4445,1.137,0.0128,-0.0021,-0.1044,-5.75,-35.75,16,134.87,-82.13,-36.17,34405,2015-10-07 16:20:53:941,1
-3.9456,10.8218,0.4405,-0.1457,9.7737,0.7904,-3.936,0.9507,-0.2158,0.8543,0.8565,-0.6157,-6.25,-35,16.5,146.54,-82.97,-20.68,34505,2015-10-07 16:20:54:041,1
-3.5434,11.5879,1.3599,-0.869,9.768,0.0485,-2.7702,2.2414,1.2539,1.0717,1.6107,-0.5135,-5.25,-36,17.5,196.22,-85.37,34.18,34605,2015-10-07 16:20:54:141,1
-3.6392,10.8409,0.1724,-1.8176,9.5438,-1.3348,-2.4536,0.3011,0.2048,1.5404,0.3792,-1.289,-3.75,-32,20.25,273.36,-80.54,119.84,34704,2015-10-07 16:20:54:240,1
1.3791,8.2169,0.5938,-1.7591,9.4052,-2.149,3.1382,-1.1883,2.7427,0.3302,-0.0362,0.0447,-3.75,-28.5,25.25,275.64,-74.35,129.66,34805,2015-10-07 16:20:54:341,1
5.1332,7.2975,-4.5203,-0.7269,9.3946,-2.7173,5.8601,-2.0971,-1.8029,0.5987,-0.4005,0.686,-4,-25.75,30.25,310.92,-73.81,149.66,34905,2015-10-07 16:20:54:441,1
7.853,5.2098,-0.249,0.2481,9.4513,-2.6043,7.3942,-5.0651,2.1446,0.1257,-1.2932,1.7257,-3,-22.25,33.5,344.35,-73.29,173.53,35005,2015-10-07 16:20:54:541,1
5.0182,7.6806,-0.3639,2.1218,9.2936,-2.3017,2.1495,-1.9194,1.5547,-0.2748,0.5412,-0.0959,-4,-22.5,35,39.92,-70.87,-142.87,35105,2015-10-07 16:20:54:641,1
2.624,7.1251,-3.1412,2.1998,9.2303,-2.4763,0.8648,-1.3965,-0.8756,0.4155,0.1619,0.0788,-7.75,-21.25,35,44.49,-71.61,-136.62,35205,2015-10-07 16:20:54:741,1
3.3327,8.6574,-3.3902,2.2876,9.1338,-2.7405,1.0451,-0.4764,-0.6497,0.098,0.1023,-0.0831,-10.25,-21.75,34.5,32.94,-69.61,-139.48,35305,2015-10-07 16:20:54:841,1
3.0263,8.5808,-4.0414,2.2871,9.0656,-2.9589,1.5113,-0.5007,-0.8147,0.2365,0.0277,-0.1321,-10,-20,35,32.01,-68.4,-140.16,35405,2015-10-07 16:20:54:941,1
3.5051,8.4851,-2.7007,2.1869,9.1698,-2.7024,1.299,-0.589,-0.0557,-0.3111,0.1193,-0.6115,-10.5,-20.75,34.25,30.46,-69.24,-141.02,35505,2015-10-07 16:20:55:041,1
2.8156,8.2169,-1.7238,1.8664,9.4031,-2.0659,0.9492,-1.1862,0.3421,-0.7649,0.2088,-0.6029,-10.5,-20.75,32.75,27.44,-69.85,-141.24,35605,2015-10-07 16:20:55:141,1
2.1835,8.1977,-0.2873,1.2748,9.6464,-1.2219,0.9088,-1.4486,0.9346,-0.4005,0.2663,-0.7989,-9.75,-21.5,31.25,32.33,-79.63,-133.79,35704,2015-10-07 16:20:55:240,1
0.9577,8.2169,0.4405,0.7379,9.7471,-0.7871,0.2198,-1.5302,1.2277,0.0043,-0.0852,-0.5774,-9.25,-23.75,28.5,28.43,-83.68,-136.85,35804,2015-10-07 16:20:55:340,1
-0.3256,8.1211,-0.3256,0.1376,9.7915,-0.5271,-0.4249,-1.8428,0.7378,0.1641,-0.1257,-0.5518,-6.25,-26,26.5,2.22,-86.82,-165.38,35904,2015-10-07 16:20:55:440,1
-0.7853,8.0637,0.3256,-0.2588,9.794,-0.4248,-0.6797,-1.7112,0.9227,-0.0874,-0.245,-0.4069,-4.25,-27.25,25,317.42,-87.09,148.65,36004,2015-10-07 16:20:55:540,1
-0.2873,8.4276,0.2682,-0.5014,9.7912,-0.2283,0.2524,-1.4593,0.688,-0.1896,-0.0128,-0.2407,-1.5,-29,24.25,288.37,-86.78,114.48,36104,2015-10-07 16:20:55:640,1
-3.9648,10.1514,-0.8045,-0.7443,9.7701,0.4012,-3.2641,0.374,-1.0911,-1.0866,-0.3473,0.13,0.25,-28,24,255.92,-86.02,80.4,36204,2015-10-07 16:20:55:740,1
-4.4245,12.1625,0.7853,-0.8383,9.7383,0.796,-3.5778,2.428,-0.0465,-0.2663,-0.0554,0.4069,0.75,-30.75,22,222.79,-83.23,46.48,36304,2015-10-07 16:20:55:840,1
-0.6704,10.6494,-1.245,-0.5863,9.7806,0.4083,-0.0841,0.8688,-1.6533,0.2514,-0.017,0.3047,0,-32.75,18.75,223.6,-84.76,49.77,36405,2015-10-07 16:20:55:941,1
-0.4214,9.4427,0.4788,-0.5093,9.7867,0.3627,0.3944,-0.1333,0.1544,0.0618,0.0107,-0.1598,-1.25,-32.25,19.5,227.43,-86.34,54.54,36505,2015-10-07 16:20:56:041,1
-0.3831,9.098,0.5363,-0.5555,9.7839,0.3698,0.1724,-0.686,0.1666,-0.1193,0.1406,0.1278,-2,-31.5,19.25,225.86,-86.1,56.35,36605,2015-10-07 16:20:56:141,1
-0.5363,9.232,0.2873,-0.5386,9.7859,0.3411,0.0023,-0.5539,-0.0538,0.1001,0.1534,-0.066,-1.25,-30,19.25,231.06,-86.29,58.57,36705,2015-10-07 16:20:56:241,1
-0.2298,9.3278,0.2298,-0.464,9.7899,0.3361,0.2341,-0.4621,-0.1062,-0.0916,0.1065,0.1023,-2,-30,19.5,226.11,-86.49,55.91,36805,2015-10-07 16:20:56:341,1
-0.1341,9.5002,0.0958,-0.385,9.7946,0.2958,0.3395,-0.2753,-0.169,0.0874,-0.0107,0.0107,-1.75,-31.75,19.75,220.37,-86.94,49.1,36905,2015-10-07 16:20:56:441,1
-0.249,9.2895,0.1915,-0.4144,9.7937,0.285,0.1654,-0.5042,-0.0934,0.032,-0.0085,-0.049,-3,-30.75,19.75,224.27,-87.2,52.97,37005,2015-10-07 16:20:56:541,1
0.5363,9.596,0.0958,-0.3582,9.7951,0.3136,0.8945,-0.1991,-0.2179,-0.0256,-0.0788,-0.0554,-3.5,-30.75,20,217.95,-87.07,51.23,37105,2015-10-07 16:20:56:641,1
1.3982,10.2472,-0.3639,-0.2973,9.7983,0.2757,2.4616,0.6405,0.1074,-0.4708,-0.1065,-0.0469,-3,-29.5,20,216.95,-87.18,47.44,37205,2015-10-07 16:20:56:741,1
2.5857,9.3853,1.992,-0.2692,9.7936,0.4283,2.3378,-0.8489,0.8933,0.0703,0.0341,-0.2834,-3.5,-30.75,20,203.14,-87.21,33.33,37306,2015-10-07 16:20:56:842,1
1.1109,7.8913,0.4022,-0.3653,9.7938,0.3438,1.4762,-1.9025,0.0584,0.0405,-0.2684,-0.1321,-1.75,-29.75,21,216.78,-87.01,44.73,37405,2015-10-07 16:20:56:941,1
-0.7661,8.4851,-0.498,-0.2254,9.8024,0.1802,-0.5407,-1.3174,-0.6782,0.1023,-0.7137,0.2791,-1.25,-32.5,20.5,225.69,-87.81,50.78,37505,2015-10-07 16:20:57:041,1
-1.9154,9.5193,0.3448,-0.0169,9.8057,0.1385,-1.8985,-0.2863,0.2062,-0.3132,-1.1121,0.4027,0,-32.75,21,223.61,-88.69,44.94,37604,2015-10-07 16:20:57:140,1
-2.7964,9.9982,0.4405,0.286,9.7949,0.3858,-3.0824,0.2033,0.0548,-0.343,-0.9289,0.6264,0.25,-32.75,20,166.16,-88.44,-14.42,37705,2015-10-07 16:20:57:241,1
-3.3136,11.3964,0.4788,0.2914,9.7811,0.6439,-3.6361,1.4801,-0.2095,-0.1577,-0.3409,0.2578,-0.25,-32.75,19.5,148.12,-86.18,-35.15,37805,2015-10-07 16:20:57:341,1
-4.118,11.7795,1.6089,-0.1447,9.7795,0.715,-3.7783,1.9433,0.7001,0.2429,0.6413,-0.196,-0.75,-36.75,19.25,164.67,-85.61,-14.47,37905,2015-10-07 16:20:57:441,1
-4.0606,11.6454,1.5323,-0.8549,9.7598,0.4317,-3.2056,1.8856,1.1006,0.8288,1.5809,-0.735,-1.75,-36.25,18.5,229.29,-84.4,63.21,38004,2015-10-07 16:20:57:540,1
-5.0566,12.1051,0.249,-1.909,9.6084,-0.4521,-2.5985,2.4666,0.3978,0.6008,1.6022,-0.9097,-1.25,-33.75,20,260.66,-78.46,103.32,38104,2015-10-07 16:20:57:640,1
0.498,8.7149,-0.1149,-2.9398,9.2708,-1.2571,2.5949,-0.6065,0.2918,-0.0213,0.1364,-0.3451,-1.75,-32.25,23.5,260.18,-73.87,110.15,38204,2015-10-07 16:20:57:740,1
3.371,8.6766,-0.5938,-2.3864,9.4638,-0.9545,6.8429,-2.165,1.9692,0.0682,-0.1896,0.1939,-1,-30.25,26.5,265.48,-73.17,107.82,38304,2015-10-07 16:20:57:840,1
4.9033,7.2784,-1.9154,-1.6841,9.5841,-1.216,6.5874,-2.3058,-0.6994,0.245,-1.0802,0.5731,-2.5,-28,27.5,276.17,-74.87,115.27,38404,2015-10-07 16:20:57:940,1
3.6775,6.6463,-1.1684,-0.9808,9.6805,-1.2232,4.2218,-2.9781,1.0991,-0.637,-0.1555,1.1228,-1.25,-26.5,29.5,301.41,-78.83,136.73,38505,2015-10-07 16:20:58:041,1
2.7773,8.1786,-1.2833,0.0046,9.7173,-1.3206,1.9491,-1.443,-0.3649,0.0341,0.3132,0.5177,-0.75,-26.25,29.5,358.04,-82.26,-179.8,38605,2015-10-07 16:20:58:141,1
1.7238,8.7915,-2.4708,0.3071,9.683,-1.5215,0.6698,-1.2363,-1.0834,-0.2557,0.1406,0.1704,-4,-27,29.75,5.08,-81.36,-169.95,38705,2015-10-07 16:20:58:241,1
1.743,9.596,-1.8196,0.5821,9.6637,-1.5636,0.9885,0.0281,-0.6774,0.1001,-0.0085,0.0831,-4.75,-26.75,29.75,11.54,-80.55,-160.82,38804,2015-10-07 16:20:58:340,1
1.6664,9.0788,-0.6512,0.6342,9.6829,-1.4177,1.0321,-0.6063,0.7513,-0.1598,0.1598,-0.0405,-4.75,-25.75,29,16.85,-80.89,-155.9,38904,2015-10-07 16:20:58:440,1
1.8196,8.8298,-0.9577,0.679,9.6923,-1.3297,1.1252,-0.8672,0.3295,-0.294,0.1875,-0.0383,-5,-28.5,29,15.38,-81.03,-155.28,39004,2015-10-07 16:20:58:540,1
1.9154,8.0445,0.3256,0.6813,9.758,-0.699,1.1834,-1.6028,1.1801,-0.4431,0.4794,-0.2173,-4.75,-28,28,37.72,-84.29,-135.73,39104,2015-10-07 16:20:58:640,1
2.241,7.8338,0.1341,0.5292,9.7923,0.0298,1.7118,-1.9585,0.1043,-0.5603,0.6839,-0.2386,-6,-28.75,25.5,66.76,-86.6,-103.68,39204,2015-10-07 16:20:58:740,1
0.9577,8.102,1.6472,0.2977,9.7943,0.392,0.6599,-1.6923,1.2552,0.2748,0.277,-0.0213,-5.5,-29.75,24.25,98.06,-87.2,-73.56,39305,2015-10-07 16:20:58:841,1
-0.6512,7.9679,1.9728,0.168,9.791,0.5274,-0.8192,-1.8231,1.4455,-0.1768,0.1534,-0.1214,-5.25,-29.75,22,117.22,-88.13,-52.18,39405,2015-10-07 16:20:58:941,1
-0.996,9.1554,1.2067,-0.158,9.786,0.6159,-0.4741,-0.5348,0.0353,0.4091,-0.4069,-0.5305,-4,-31.25,21.5,172.18,-86,1.75,39504,2015-10-07 16:20:59:040,1
-3.2178,9.9407,-0.7661,-0.5116,9.7868,0.3562,-2.7254,0.1156,-1.4862,-0.1577,-0.4389,0.1108,-4.25,-30.5,20.75,208.66,-86.35,41.86,39605,2015-10-07 16:20:59:141,1
-4.5586,10.7069,-0.2682,-0.8062,9.7642,0.4254,-3.7523,0.9427,-0.6936,-0.3558,-0.1832,0.1321,-1.75,-30.75,20.75,227.78,-85.47,58.07,39705,2015-10-07 16:20:59:241,1
-4.0414,10.8984,-0.5363,-0.9482,9.754,0.3614,-2.6718,1.0103,-1.1658,0.4176,-0.2237,0.179,-0.25,-32,20.25,235.76,-84.67,62.18,39805,2015-10-07 16:20:59:341,1
-1.8962,9.8641,1.8387,-0.8922,9.7461,0.6229,-1.004,0.118,1.2158,-0.1662,-0.0724,0.2599,0,-31.75,20,242.08,-84.29,70.08,39905,2015-10-07 16:20:59:441,1
-0.4214,9.2895,1.1301,-0.8841,9.7456,0.6418,0.506,-0.3994,0.2202,0.0916,-0.081,-0.1278,-0.25,-31.5,19.5,229.81,-83.81,57,40005,2015-10-07 16:20:59:541,1
-0.1341,9.098,1.1301,-0.9462,9.7436,0.5807,0.8121,-0.6456,0.5493,0.3771,-0.1214,-0.0426,0,-32.25,18.25,223.73,-83.6,54.02,40105,2015-10-07 16:20:59:641,1
-0.1149,8.9064,0.6129,-0.9899,9.7504,0.3475,0.9535,-0.7274,0.3954,0.1065,0.0192,-0.0831,-0.25,-33.5,18.75,240.09,-83.82,69.31,40204,2015-10-07 16:20:59:740,1
-0.747,8.849,0.0958,-1.0588,9.748,0.1637,0.4151,-0.8804,-0.0854,0.1108,0.0575,-0.0469,0.25,-33.25,19.5,247.79,-83.85,77.13,40304,2015-10-07 16:20:59:840,1
-0.6129,9.2895,0.1341,-1.0291,9.7518,0.1166,0.4342,-0.4606,0.0352,-0.1747,-0.0064,0.1364,0,-32.25,20.75,254.14,-83.73,81.21,40404,2015-10-07 16:20:59:940,1
0.4788,9.4044,0.9194,-0.9717,9.756,0.2166,1.4505,-0.3516,0.7028,0.0383,-0.0746,-0.1577,0.25,-33,21.25,254.91,-83.94,83.54,40505,2015-10-07 16:21:00:041,1
0.7278,8.7149,-0.2682,-0.9216,9.7625,0.124,1.6495,-1.0476,-0.3922,-0.245,-0.2407,0.032,0,-33,21,253.43,-84.49,81.71,40605,2015-10-07 16:21:00:141,1
0.2107,8.2552,0.0575,-0.7996,9.7676,0.3528,0.9872,-1.5121,-0.3889,-0.1385,-0.7798,0.1768,0.25,-34,20.5,251.86,-84.68,80.03,40705,2015-10-07 16:21:00:241,1
-0.7661,9.0214,0.7087,-0.4788,9.7753,0.6205,-0.2873,-0.7539,0.0882,0.4645,-1.0717,0.2173,2,-32.75,19.25,225.27,-84.97,45.34,40804,2015-10-07 16:21:00:340,1
-1.1301,10.4579,1.4174,0.0683,9.7853,0.6438,-1.1983,0.6726,0.7735,0.1662,-0.6221,0.3814,2.5,-34.5,18.75,214.91,-86.88,29.05,40904,2015-10-07 16:21:00:440,1
-1.8579,10.1897,1.0151,0.3354,9.789,0.4825,-2.1933,0.4007,0.5326,0.0085,-0.3388,0.4346,1.5,-35,17.75,179.96,-86.21,-6.05,41004,2015-10-07 16:21:00:540,1
-2.5666,10.7643,0.7853,0.454,9.7824,0.5191,-3.0206,0.982,0.2662,0.2322,0.3004,0.0746,-1,-34,17.75,139.71,-85.95,-41.99,41104,2015-10-07 16:21:00:640,1
-4.3096,12.2775,1.2258,-0.1092,9.8036,0.2203,-4.2004,2.4739,1.0056,0.6818,1.3081,-0.4581,-2.5,-34.5,18,144.5,-87.88,-31.45,41205,2015-10-07 16:21:00:741,1
-3.869,11.6454,-0.5363,-0.958,9.7502,-0.4318,-3.0046,1.8186,-0.5243,0.7713,1.4104,-1.1249,-3,-33.75,19.5,275.31,-83.85,114.26,41305,2015-10-07 16:21:00:841,1
-3.4093,10.477,0.8811,-2.471,9.4303,-1.0647,-0.9384,1.0467,1.9458,0.9992,1.093,-1.4594,-3.75,-32.75,22.25,261.5,-76.91,111.41,41407,2015-10-07 16:21:00:943,1
-3.8499,8.7149,0.3639,-3.2327,9.1002,-1.7046,-0.6172,-0.3853,2.0686,0.6626,0.9779,0.196,-1.5,-30.5,25,264.4,-68.35,114.52,41504,2015-10-07 16:21:01:040,1
0.3065,6.5314,-1.494,-2.881,9.1001,-2.249,3.1875,-2.5687,0.755,0.424,0.3388,1.5425,1.5,-29.25,27.75,276.03,-67.27,121.97,41604,2015-10-07 16:21:01:140,1
4.8076,5.0566,-4.3096,-1.3847,9.2359,-2.9918,6.5562,-4.505,-1.7774,0.7159,-0.7137,2.0048,1.5,-26.25,31,310.83,-70.95,141.06,41705,2015-10-07 16:21:01:241,1
3.4285,6.5697,-2.2984,0.6436,9.3514,-2.8824,3.0914,-2.5327,0.8713,-0.1257,-0.49,1.8855,0,-23.5,33.5,359.25,-72.99,179.43,41805,2015-10-07 16:21:01:341,1
2.3176,7.5274,-1.7047,1.8314,9.3581,-2.2896,1.5013,-1.5051,1.1403,-0.0234,0.2407,-0.081,-4,-21.5,35.75,33.55,-71.58,-147.39,41905,2015-10-07 16:21:01:441,1
2.9305,9.0597,-3.8116,1.9309,9.2661,-2.5655,1.2972,-0.5128,-1.5954,0.4432,-0.1129,-0.0447,-7.75,-19.5,33.5,30.83,-71.23,-142.51,42005,2015-10-07 16:21:01:541,1
3.0071,8.9256,-2.5666,2.0004,9.2824,-2.4508,0.9359,-0.198,-0.0675,0.1257,-0.0767,-0.0128,-10.25,-21,33,29.27,-71.18,-140.78,42105,2015-10-07 16:21:01:641,1
2.9688,8.4659,-2.624,2.0731,9.2619,-2.4679,0.8373,-0.7926,-0.1669,-0.0618,-0.1449,0.1001,-10.75,-20.5,31.25,26.28,-70.93,-140.97,42205,2015-10-07 16:21:01:741,1
3.2944,8.3127,-1.8962,2.0516,9.3338,-2.2004,1.2428,-1.0211,0.3042,-0.4218,0.2131,-0.3558,-10.25,-21.75,30.75,32.39,-71.59,-137.74,42304,2015-10-07 16:21:01:840,1
2.624,8.3127,-0.6129,1.8464,9.4887,-1.6512,0.7776,-1.176,1.0383,-0.7968,0.3814,-0.2322,-10.75,-22,30,31.02,-72.75,-136.53,42404,2015-10-07 16:21:01:940,1
2.8922,8.0445,-0.4214,1.6401,9.6146,-1.0193,0.7158,-1.6659,0.6554,-0.6647,0.4304,-0.6967,-9.5,-23.75,28.25,39.07,-76.56,-128.77,42504,2015-10-07 16:21:02:040,1
2.4517,8.351,0.5746,1.0048,9.7429,-0.4858,1.4469,-1.392,1.0604,0.294,-0.0085,-0.9033,-9.5,-25.75,25,49.45,-83.47,-115.8,42604,2015-10-07 16:21:02:140,1
0.0192,8.9064,-1.1301,-0.1337,9.784,-0.6522,1.1657,-1.1839,-0.0167,0.0021,-0.0831,-1.0674,-7,-28.25,23.25,354.43,-86.1,-168.19,42704,2015-10-07 16:21:02:240,1
0.2682,8.3127,0.1341,-0.6995,9.774,-0.3868,0.9677,-1.4614,0.5209,-0.4879,-0.2301,-0.7904,-4,-29.25,23.25,304.1,-85.79,143.05,42805,2015-10-07 16:21:02:341,1
-3.9456,8.9256,-0.2682,-1.3868,9.7077,0.0899,-2.2141,-0.648,-0.1665,-0.6775,-0.3878,-0.2088,-0.5,-30,21.5,255.54,-81.85,86.29,42905,2015-10-07 16:21:02:441,1
-8.3127,9.7683,0.7278,-1.8899,9.595,0.7313,-5.6374,0.25,-0.1184,-0.3302,0.0767,0.5838,3,-32,19,243.57,-78.61,71.54,43005,2015-10-07 16:21:02:541,1
-4.8076,10.8984,-0.4214,-1.6815,9.6431,0.5943,-2.3025,0.9488,-0.4794,0.0128,0.147,0.6179,4.5,-32,16.25,249.01,-79.52,70.53,43105,2015-10-07 16:21:02:641,1
-1.3024,9.9407,1.2833,-1.4533,9.6814,0.5739,0.1509,0.2594,0.7094,-0.1704,0.0895,0.0426,3,-33.75,15.75,247.38,-80.18,71.64,43205,2015-10-07 16:21:02:741,1
-0.996,9.098,1.0343,-1.4583,9.6841,0.5114,0.4624,-0.5862,0.5229,0.0788,0.2706,-0.1087,1.25,-33,15.25,236.66,-80.86,69.24,43305,2015-10-07 16:21:02:841,1
-1.1684,8.9447,0.3448,-1.4418,9.6927,0.3795,0.2734,-0.7479,-0.0347,0.0085,0.2557,0.066,-0.5,-31.75,15.75,240.59,-81.02,72.6,43405,2015-10-07 16:21:02:941,1
-0.7661,9.1363,0.1724,-1.4105,9.6999,0.304,0.6443,-0.5636,-0.1316,-0.0021,0.1129,0.049,0,-32.75,15.75,241.29,-81.48,76.7,43505,2015-10-07 16:21:03:041,1
-0.249,9.1746,0.1341,-1.2575,9.7245,0.1548,1.0085,-0.5499,-0.0861,0.0533,-0.0788,0.1065,-1,-31.75,16.75,245.53,-82.31,82.03,43605,2015-10-07 16:21:03:141,1
-0.0383,9.2703,-0.0766,-1.1429,9.7397,0.0449,1.1046,-0.4694,-0.1215,0.0874,-0.1385,0.0874,-0.5,-32,17.25,255.49,-83.3,87.75,43705,2015-10-07 16:21:03:241,1
0.7853,9.5002,0.1915,-1.014,9.7539,0.0626,1.7993,-0.2537,0.129,-0.1001,-0.1939,-0.1214,0,-32,17,255.6,-84.05,86.47,43805,2015-10-07 16:21:03:341,1
0.1915,8.9256,0.3065,-0.9566,9.7576,0.2093,1.0716,-0.8321,0.1546,-0.2365,-0.2642,0.1598,0,-30,17.25,253.33,-84.1,83.3,43905,2015-10-07 16:21:03:441,1
-0.0383,9.1171,0.0766,-0.7913,9.7707,0.2799,0.5615,-0.5386,-0.1075,0.0916,-0.5539,0.0724,0.25,-32,16.25,241.9,-85.09,70.52,44004,2015-10-07 16:21:03:540,1
-0.5171,9.481,-0.3256,-0.5854,9.7872,0.1956,-0.5638,-0.4594,-0.1956,0.0511,-1.0035,0.2194,-0.75,-32.5,15,241.02,-86.39,71.52,44104,2015-10-07 16:21:03:640,1
-2.7581,9.3087,0.8811,-0.419,9.7933,0.2924,-2.1476,-0.6571,0.6078,0.1939,-1.1398,0.3196,0.75,-33,15.25,233.65,-87.01,55.09,44204,2015-10-07 16:21:03:740,1
-3.0837,10.0748,1.8196,-0.2842,9.7919,0.4567,-2.7995,0.2829,1.3629,-0.2642,-0.5923,0.3302,1.75,-33.75,15.75,232.7,-87.32,53.48,44305,2015-10-07 16:21:03:841,1
-2.1644,9.8641,0.4214,-0.2872,9.7973,0.3163,-1.8382,-0.0471,0.4867,0.3473,0.3707,-0.0213,0.5,-34.75,15,203.29,-86.62,26.29,44405,2015-10-07 16:21:03:941,1
-3.62,10.9559,0.2873,-0.5202,9.7921,0.1213,-3.2179,1.2436,0.3439,0.0256,0.8778,-0.1555,-0.75,-35.5,15.25,232.19,-87.64,56.52,44505,2015-10-07 16:21:04:041,1
-4.7118,11.6837,-0.5171,-1.3206,9.7147,-0.2265,-3.3912,1.969,-0.2906,0.8288,1.3252,-0.7989,-0.75,-33,16,260.02,-82.15,99.73,44605,2015-10-07 16:21:04:141,1
-5.7652,10.2089,0.7661,-2.324,9.4837,-0.91,-2.2664,1.4956,1.4297,1.3486,1.4466,-1.142,-0.75,-33.25,18,260.22,-75.26,111.38,44704,2015-10-07 16:21:04:240,1
-3.122,10.5919,1.9345,-3.1288,9.1375,-1.699,0.1842,0.3731,4.0123,-0.1513,1.5595,-0.4922,-1.25,-31.75,19.5,258.89,-68.71,118.5,44805,2015-10-07 16:21:04:341,1
-0.0958,8.4276,-0.8045,-2.9987,9.0485,-2.3028,3.7366,-1.1588,1.3891,0.2493,0.2194,0.8714,-0.25,-29.5,22.75,266.92,-66.72,125.06,44905,2015-10-07 16:21:04:441,1
7.106,4.9991,-1.4557,-1.2934,9.402,-2.4699,7.7379,-4.3901,0.6201,0.2898,-0.8352,1.747,-1.75,-26.5,26,288.5,-70.58,135.32,45005,2015-10-07 16:21:04:541,1
6.1675,6.7229,-1.0918,0.5729,9.5619,-2.1004,5.0353,-3.2442,0.2282,-1.3294,-0.1832,1.6767,-3,-24,26.75,328.58,-75.02,162.69,45104,2015-10-07 16:21:04:640,1
2.4134,7.3741,-1.4557,1.4669,9.5832,-1.4771,1.4133,-2.1816,0.3777,-0.098,0.3515,0.2663,-4.75,-22,28,28.9,-77.97,-146,45204,2015-10-07 16:21:04:740,1
2.7773,8.8298,-4.1946,1.7464,9.4565,-1.9221,0.9998,-0.6375,-2.2405,0.3025,0.3345,0.0213,-9.25,-24,26.75,32.29,-76.66,-135.99,45305,2015-10-07 16:21:04:841,1
2.5283,8.6957,-3.3519,1.9243,9.4045,-2.0056,0.604,-0.7088,-1.3463,0.1491,0.0746,0.066,-12.75,-24,26,23.77,-73.95,-135.81,45405,2015-10-07 16:21:04:941,1
2.5091,8.8107,-2.0494,2.0566,9.3886,-1.9481,0.4525,-0.5779,-0.1013,0.0959,-0.2237,-0.0107,-13.5,-22.75,26.25,20.82,-73.54,-136.19,45505,2015-10-07 16:21:05:041,1
2.739,8.3701,-1.8962,2.0828,9.3786,-1.9684,0.6561,-1.0084,0.0722,-0.2237,-0.1108,-0.2152,-14,-24.25,26.75,25.86,-73.21,-133.45,45604,2015-10-07 16:21:05:140,1
2.5857,8.7532,-1.0918,1.9103,9.4654,-1.711,0.618,-0.8846,0.581,-0.0426,0.2919,-0.4091,-13.75,-22.5,26.5,25.12,-73.01,-133.38,45704,2015-10-07 16:21:05:240,1
3.122,8.3893,-0.6895,1.471,9.5997,-1.3612,1.6115,-1.4044,1.2199,-0.2344,0.3238,-0.4623,-13.75,-23.75,26,28.04,-74.84,-131.85,45805,2015-10-07 16:21:05:341,1
3.3136,7.4508,-1.7813,0.9378,9.7139,-0.9651,2.5058,-1.9804,-0.6391,-0.8927,0.4197,-0.9012,-13.75,-24.5,24.5,20.19,-79.15,-134.02,45905,2015-10-07 16:21:05:441,1
0.2873,8.1403,-0.996,0.1117,9.7916,-0.531,3.0007,-1.858,0.0652,-0.5859,-0.196,-1.142,-10.75,-26,23.5,23.82,-86.3,-133.07,46005,2015-10-07 16:21:05:541,1
0.1341,8.7915,-1.2258,-0.7075,9.7782,-0.2398,1.2502,-1.0121,-0.9849,-0.1513,-0.2131,-1.1057,-7.75,-29.25,21,285.29,-86.56,130.47,46105,2015-10-07 16:21:05:641,1
-2.7581,8.3127,2.0686,-1.5196,9.6753,0.4993,-0.7538,-0.9905,0.3786,-0.017,-0.7968,-0.8437,-4.5,-29.5,20,234.19,-83.15,73.25,46205,2015-10-07 16:21:05:741,1
-5.861,8.102,0.4022,-1.9255,9.5939,0.6479,-4.3322,-1.1993,-0.0749,-0.5646,-0.2471,0.3792,-0.25,-29.75,17.75,231.95,-80.61,71.81,46305,2015-10-07 16:21:05:841,1
-7.9104,10.8026,-0.9768,-1.8455,9.6049,0.7147,-6.0099,0.0935,-1.9366,-0.2727,-0.3004,0.8693,5.25,-29.75,16,240.04,-77.75,69,46405,2015-10-07 16:21:05:941,1
-4.1946,11.5688,0.1149,-1.5004,9.6679,0.6714,-1.6287,1.548,-0.7879,0.1278,0.1875,0.7116,5.25,-30.75,13.75,244.46,-78.86,65.9,46505,2015-10-07 16:21:06:041,1
-1.1492,9.6917,0.6704,-1.3407,9.7036,0.462,-0.0234,-0.0133,0.2453,0.228,-0.0831,0.0511,1.25,-32.5,13.5,236.27,-81.53,68.23,46605,2015-10-07 16:21:06:141,1
-0.9577,8.9256,0.9768,-1.4049,9.6983,0.3742,0.4472,-0.7727,0.6026,0.066,0.0916,-0.1278,0,-31.25,14.25,239.63,-81.54,75.83,46712,2015-10-07 16:21:06:248,1
-0.7853,8.9639,0.9194,-1.422,9.6972,0.3357,0.6941,-0.6184,0.5836,0.0256,0.1321,-0.1044,-0.25,-30.75,13.75,241.21,-81.3,78.15,46805,2015-10-07 16:21:06:341,1
-0.8811,9.1363,0.249,-1.3366,9.7128,0.213,0.6279,-0.5382,0.1893,0.0085,0.1917,-0.0703,-0.25,-32,14.5,244.04,-81.78,79.85,46904,2015-10-07 16:21:06:440,1
-0.4597,9.2703,0.4597,-1.2653,9.7231,0.1762,0.6141,-0.5485,0.1494,-0.147,0.1917,0.0852,-0.75,-31,15.25,244.57,-82.3,82.75,47005,2015-10-07 16:21:06:541,1
-0.6129,9.2895,0.2682,-1.1714,9.7346,0.1917,0.6159,-0.5217,0.3255,-0.1427,0.1364,-0.0064,-1.5,-29.5,14.5,245.42,-82.97,81.55,47104,2015-10-07 16:21:06:640,1
-0.5938,9.347,0.3639,-1.1148,9.7417,0.1663,0.4827,-0.433,0.1784,-0.1342,0.0895,0.017,-2,-30,14,242.59,-83.38,83.17,47204,2015-10-07 16:21:06:740,1
-0.0766,9.73,0.4597,-1.0364,9.7503,0.1694,0.9598,-0.0202,0.2903,0.0533,-0.0021,0.0767,-2,-31.75,14.75,241.35,-83.75,80.5,47304,2015-10-07 16:21:06:840,1
0.5555,9.0597,0.1532,-0.9325,9.7614,0.1295,1.488,-0.7017,0.0237,-0.0107,0.1534,0.0362,-2,-31.25,15.25,245.22,-84.47,83.08,47404,2015-10-07 16:21:06:940,1
1.1875,8.7532,-0.6321,-0.835,9.771,-0.0063,2.0225,-1.0178,-0.6257,0.3111,-0.3771,-0.049,-2.5,-30.75,15.5,243.8,-84.73,79.98,47505,2015-10-07 16:21:07:041,1
0.4405,8.6574,-0.4597,-0.6496,9.7851,0.0179,1.0901,-1.1277,-0.4775,0.0831,-0.8501,0.1257,-2.25,-30,16,248.12,-85.82,82.44,47605,2015-10-07 16:21:07:141,1
-1.5131,9.2703,0.1341,-0.2467,9.802,0.1755,-0.7535,-1.0262,0.8696,0.4176,-1.3678,0.3771,-2,-30.5,15.75,217.6,-87.37,47.68,47705,2015-10-07 16:21:07:241,1
-2.5857,9.5577,1.1301,0.1436,9.7955,0.4448,-2.6398,-0.4896,0.5287,-0.4815,-0.9289,0.6583,-0.75,-28.75,15.5,224.62,-88.23,54.58,47805,2015-10-07 16:21:07:341,1
-2.9688,11.0133,1.2258,0.3987,9.7701,0.7457,-3.3675,1.2432,0.4801,-0.3388,-0.2088,0.3707,-1.75,-29.75,15,146.97,-85.83,-29.88,47905,2015-10-07 16:21:07:441,1
-3.237,11.7412,0.5171,0.0847,9.7834,0.6692,-3.5095,1.9399,-0.3006,-0.0533,0.6328,-0.1534,-5,-32.25,13,143.51,-85.72,-21.23,48005,2015-10-07 16:21:07:541,1
-3.4093,11.3006,0.9194,-0.6413,9.7856,0.0434,-2.9263,1.5098,0.642,1.1718,1.1761,-0.5049,-5,-32.5,13.25,189.52,-86.59,31.83,48104,2015-10-07 16:21:07:640,1
-2.241,11.3964,1.7238,-1.4293,9.6979,-0.2792,-0.9915,2.258,2.1002,0.4645,1.387,-0.9119,-4.25,-32.25,14,249.18,-83.35,98.85,48205,2015-10-07 16:21:07:741,1
-3.3136,8.6766,0.3639,-2.4133,9.4657,-0.8639,-0.9003,-0.7892,1.2278,0.4559,1.012,-0.2173,-5,-30,15.75,247.97,-76.83,107.54,48305,2015-10-07 16:21:07:841,1
1.245,9.6917,0.6895,-2.3048,9.4869,-0.9253,3.519,0.3422,2.1013,0.3196,-0.1278,0.4538,-3,-27,18.25,257.29,-74.66,109.58,48404,2015-10-07 16:21:07:940,1
5.861,8.3701,-1.3982,-1.4564,9.6084,-1.3147,7.0231,-1.4886,0.0517,0.8927,-1.3444,0.3622,-3,-25.75,19.25,287.53,-78.46,132.07,48505,2015-10-07 16:21:08:041,1
6.3398,6.2632,-0.996,-0.347,9.6588,-1.6608,5.7527,-3.9463,-0.3429,0.4346,-1.2101,0.9417,-5,-24.25,22,297.33,-78.79,141.5,48605,2015-10-07 16:21:08:141,1
3.7733,7.8147,0.2107,1.058,9.6678,-1.2589,2.7152,-1.8531,1.4696,-0.8522,0.4155,0.1406,-5.75,-24,24,7.65,-80.22,-163.93,48704,2015-10-07 16:21:08:240,1
2.49,8.3893,-1.2641,1.3058,9.6558,-1.1097,1.1841,-1.2665,-0.1545,0.2578,0.2301,0.0597,-7.5,-23.75,24.5,40.5,-79.94,-130.36,48805,2015-10-07 16:21:08:341,1
2.1261,8.5234,-2.2027,1.4161,9.6105,-1.343,0.71,-1.0871,-0.8596,0.1385,0.0533,-0.0597,-9.25,-23,23,36.91,-79.45,-131.4,48905,2015-10-07 16:21:08:441,1
2.3942,8.8681,-1.992,1.4708,9.5726,-1.5402,0.9234,-0.7045,-0.4517,-0.032,0.1236,-0.147,-10.5,-22.25,23,25.42,-77.46,-136.32,49004,2015-10-07 16:21:08:540,1
2.6432,8.849,-1.9154,1.3423,9.5859,-1.5744,1.5638,-0.6287,-0.1116,-0.3451,0.4623,-0.392,-11,-22,23.75,19.63,-77.82,-139.55,49104,2015-10-07 16:21:08:640,1
2.6815,8.8298,-0.2682,1.0878,9.6871,-1.0707,2.0797,-0.8707,-0.33,-0.2237,0.3238,-0.5433,-10,-21,23.75,26.31,-81.05,-134.55,49205,2015-10-07 16:21:08:741,1
1.6281,8.6191,-1.3791,0.5902,9.7673,-0.65,1.1015,-1.151,-0.7181,0.2791,0.3068,-0.8394,-9.75,-22.75,22.25,19.5,-84.86,-137.76,49304,2015-10-07 16:21:08:840,1
0.0958,8.9064,-0.498,-0.1311,9.7945,-0.4708,-0.1946,-1.2328,0.4708,-0.4559,0.1129,-0.7159,-9.25,-26.5,20.5,342.54,-86.24,-172.95,49405,2015-10-07 16:21:08:941,1
-1.0534,8.6766,0.0958,-0.5826,9.786,-0.2537,-1.4094,-1.4734,1.5944,-0.3771,0.1044,-0.4815,-7.75,-26,20,267.24,-86.29,113.53,49504,2015-10-07 16:21:09:040,1
-1.6089,8.4276,-0.9002,-0.9056,9.7646,-0.0444,-0.9331,-1.5286,0.4658,-0.784,0.0128,-0.1534,-5,-26.75,19.25,251.2,-84.69,92.81,49605,2015-10-07 16:21:09:141,1
-1.5897,8.2361,1.1301,-1.1159,9.7339,0.4191,-0.4448,-1.4922,0.6598,-0.4112,-0.1342,-0.1832,-2.25,-26.5,18.75,245.94,-84.52,78.69,49705,2015-10-07 16:21:09:241,1
-2.5666,8.1211,0.1915,-1.1315,9.6996,0.899,-1.3691,-1.582,-0.5734,-0.3984,-0.5603,0.0746,-0.25,-28,16.75,229.79,-81.8,59.89,49804,2015-10-07 16:21:09:340,1
-5.6695,11.3964,0.3831,-0.8646,9.7028,1.1307,-4.6608,1.0025,-1.247,-0.3835,-0.5582,0.9097,0.5,-30.5,15.25,219.67,-81.31,45.51,49905,2015-10-07 16:21:09:441,1
-2.6624,11.6454,-0.2873,-0.5154,9.7006,1.343,-2.3385,2.3279,0.2276,1.0525,-0.3089,0.4346,0.5,-28.75,12.25,199.25,-81.57,20.99,50004,2015-10-07 16:21:09:540,1
-1.245,9.4619,1.1109,-0.4571,9.7611,0.8266,-1.1059,0.0666,0.0077,0.2045,-0.1854,0.0213,-1.25,-30,11,198.13,-84.4,27.99,50105,2015-10-07 16:21:09:641,1
-0.498,9.3278,0.5555,-0.5034,9.7694,0.6894,0.0036,-0.4425,-0.1223,-0.0618,-0.1747,0.0383,-1.75,-30.5,11.75,200.43,-84.84,34.27,50204,2015-10-07 16:21:09:740,1
-0.3256,9.0788,0.9194,-0.5118,9.7694,0.6832,-0.0437,-0.6332,-0.0511,-0.0724,0.0597,-0.098,-3.5,-29,13,200.17,-85.01,36.84,50306,2015-10-07 16:21:09:842,1
-0.1149,9.3087,0.7278,-0.4668,9.7757,0.6226,0.1603,-0.5245,0.1243,0.0511,0.2194,0.1662,-4,-29.5,12.75,197.66,-85.03,37.92,50404,2015-10-07 16:21:09:940,1
-0.1149,9.3278,-0.0958,-0.4124,9.7862,0.4804,0.3549,-0.3818,-0.7486,-0.2365,0.1811,-0.066,-3.75,-28.5,13.25,198.41,-85.48,34.35,50504,2015-10-07 16:21:10:040,1
0.3448,9.4427,0.2107,-0.3166,9.7894,0.4875,0.5464,-0.3658,-0.2385,-0.0021,0.0341,-0.0128,-4,-28.5,13.5,198.3,-86.17,36.52,50604,2015-10-07 16:21:10:140,1
0.0575,9.4619,0.1532,-0.2652,9.7932,0.4389,0.25,-0.3896,-0.1226,0.0575,0.0043,0.0916,-4,-27.25,13,192.03,-86.6,33,50704,2015-10-07 16:21:10:240,1
0.1724,9.4236,0.4597,-0.2457,9.7952,0.4058,0.2903,-0.4097,0.092,0.0064,-0.0128,-0.0916,-4.25,-28.75,13.5,193.34,-87.21,30.56,50804,2015-10-07 16:21:10:340,1
0.6321,9.3278,0.747,-0.2475,9.7948,0.4133,0.5968,-0.4272,0.3513,0.0554,-0.1406,0.0213,-5,-27.5,13.75,191.07,-87.09,31.72,50905,2015-10-07 16:21:10:441,1
0.9577,9.0405,0.4597,-0.22,9.801,0.2499,1.2327,-0.5297,0.1541,0.2514,-0.0043,-0.032,-5,-27.75,13.25,195.09,-87.9,37.22,51004,2015-10-07 16:21:10:540,1
0.7087,9.2129,-0.2682,-0.1869,9.8046,0.0777,1.0565,-0.5149,-0.1765,0.2706,-0.1641,-0.1854,-4.25,-27.5,14,200.48,-88.05,41.36,51105,2015-10-07 16:21:10:641,1
-0.0575,8.9256,0.0958,-0.2486,9.8019,0.1773,0.1912,-0.8763,-0.0816,0.2855,-0.5625,-0.2493,-3.75,-28.5,15.25,224.47,-88.43,61.37,51205,2015-10-07 16:21:10:741,1
-0.8619,8.6957,0.9768,-0.2637,9.7978,0.3225,-0.5982,-1.1021,0.6543,0.0511,-0.4985,0.098,-2.5,-27.75,14.75,236.42,-88.18,69.64,51305,2015-10-07 16:21:10:841,1
-1.1109,9.1171,0.3065,-0.1361,9.8005,0.3203,-0.9749,-0.6834,-0.0139,-0.2322,-0.3451,0.3515,-2.5,-28.75,14.5,205.58,-88.1,34.74,51406,2015-10-07 16:21:10:942,1
-1.1684,9.5193,-0.0766,-0.0203,9.8027,0.2765,-1.4162,-0.1876,-0.6979,0.1981,-0.6626,0.1001,-3,-28.25,14,177.75,-87.8,9.68,51505,2015-10-07 16:21:11:041,1
-1.6089,9.5193,0.5363,0.1073,9.7987,0.38,-1.7162,-0.2794,0.1563,-0.0447,-0.4815,0.2727,-2.5,-29,13.5,157.88,-87.69,-15.76,51605,2015-10-07 16:21:11:141,1
-2.2601,9.9982,0.7278,0.1878,9.7945,0.4505,-2.4479,0.2037,0.2774,-0.2471,-0.0447,0.245,-3.25,-30.75,13.75,148.48,-87.15,-22.63,51705,2015-10-07 16:21:11:241,1
-2.1835,11.2432,1.0343,0.0988,9.7923,0.5213,-2.2823,1.4509,0.513,0.5816,0.7095,-0.1513,-4.5,-32.5,13,145.88,-86.89,-20.95,51805,2015-10-07 16:21:11:341,1
-1.9154,11.473,0.5555,-0.5805,9.7894,-0.0348,-1.6894,1.9251,0.5385,0.3835,1.1121,-0.3665,-4,-30.75,12.75,240.68,-87.8,82.15,51905,2015-10-07 16:21:11:441,1
-2.49,10.8601,0.9577,-1.2238,9.7291,-0.1351,-1.0559,0.8468,1.198,-0.0085,1.1888,-0.6754,-4.5,-30.5,14.75,250.37,-85.29,96.07,52004,2015-10-07 16:21:11:540,1
-3.2944,8.6957,1.5897,-1.7878,9.6381,-0.2852,-1.5529,-0.7721,2.0688,1.2954,-0.0021,-0.8458,-3.5,-28.5,14.75,249.36,-79.36,99.07,52105,2015-10-07 16:21:11:641,1
-0.9385,8.351,2.5857,-1.796,9.6312,-0.4296,3.249,-1.4866,2.1944,0.3963,0.1854,0.1406,-3,-27.25,17.75,258.1,-79.15,103.45,52208,2015-10-07 16:21:11:744,1
2.4134,7.604,-1.743,-1.077,9.6978,-0.9809,2.2603,-1.4179,-0.8088,0.4155,0.1065,1.0056,-4,-26.75,17.75,272.91,-80.12,120.23,52304,2015-10-07 16:21:11:840,1
3.7158,5.4779,-3.1412,-0.4884,9.666,-1.5814,3.7632,-3.6528,-1.4991,0.7116,-1.0866,1.0163,-6.75,-24.75,20.25,296.04,-81.57,141.15,52404,2015-10-07 16:21:11:940,1
4.4245,6.9911,-3.486,0.854,9.4998,-2.2792,3.3914,-1.7469,-1.4138,0.6647,-1.2421,1.3401,-6.25,-23.25,22.75,8.11,-75.63,-159.46,52505,2015-10-07 16:21:12:041,1
2.9305,8.1977,-0.1341,1.934,9.4786,-1.6081,0.5145,-1.2179,0.5025,0.0383,0.326,-0.0128,-6.5,-22,25.5,26.92,-74.41,-146.46,52604,2015-10-07 16:21:12:140,1
2.5283,8.2744,-1.6281,2.0628,9.435,-1.7019,0.2879,-1.2645,-0.0501,0.2748,0.115,0.0618,-9.5,-22.25,24.75,40.3,-74.18,-129.53,52704,2015-10-07 16:21:12:240,1
2.988,8.7532,-2.3559,2.2341,9.3641,-1.8691,0.9127,-0.4782,-0.2994,-0.2322,0.1619,0.0128,-10,-21.5,25.25,37.87,-72.72,-129.92,52804,2015-10-07 16:21:12:340,1
3.0646,8.7149,-1.4365,2.2365,9.401,-1.6705,0.8295,-0.6872,0.2293,0.2067,0.1364,-0.3494,-10.5,-20.75,25.25,41.2,-73.46,-126.76,52904,2015-10-07 16:21:12:440,1
3.1029,8.9256,-1.5706,2.0753,9.4384,-1.6675,1.0468,-0.3596,-0.1521,-0.1023,0.4474,-0.4155,-11.5,-20.25,26,35.88,-74.25,-128.78,53004,2015-10-07 16:21:12:540,1
2.988,7.9871,-0.9194,1.5706,9.61,-1.1629,1.2642,-1.7378,0.2244,-0.6775,0.5198,-0.8096,-10.5,-20.25,23.5,34.37,-76.56,-129.59,53104,2015-10-07 16:21:12:640,1
1.7813,8.1786,-1.9728,1.0149,9.716,-0.8606,0.7664,-1.5374,-1.1123,-0.2642,0.4666,-1.0567,-9.5,-23.5,21.5,40.26,-80.24,-122.21,53204,2015-10-07 16:21:12:740,1
0.4405,8.2169,0.5746,0.2364,9.795,-0.4145,0.2041,-1.5781,0.9891,-0.0213,-0.2386,-1.0376,-8,-23,20,33.78,-85.12,-126.69,53305,2015-10-07 16:21:12:841,1
-0.9002,8.351,-0.2107,-0.3796,9.7957,-0.2675,-0.5206,-1.4447,0.0568,-0.5475,-0.2855,-0.4985,-5.5,-24.5,18.75,313.91,-87.31,151.05,53405,2015-10-07 16:21:12:941,1
-2.0494,8.6,0.6129,-0.6511,9.7848,0.0638,-1.3983,-1.1848,0.5492,-0.1641,-0.2855,-0.2152,-2,-24.5,18.25,253.24,-86.17,84.41,53505,2015-10-07 16:21:13:041,1
-3.4093,9.1937,-0.4022,-0.9478,9.7567,0.282,-2.4616,-0.5629,-0.6842,-0.3814,-0.3728,-0.0746,-1.25,-25,16.75,242.6,-84.21,73.43,53605,2015-10-07 16:21:13:141,1
-5.3056,10.4387,0.3639,-1.0545,9.7337,0.5606,-4.554,-0.0272,-0.7406,-0.2855,-0.2791,0.5198,1.25,-25.75,15.75,236.27,-83,62,53704,2015-10-07 16:21:13:240,1
-2.241,11.3964,-0.3639,-0.7624,9.7586,0.5984,-1.8009,1.677,-1.0248,-0.375,-0.1321,0.4197,1,-29,14,229.95,-84.2,54.95,53804,2015-10-07 16:21:13:340,1
-1.6855,10.3238,1.0726,-0.7725,9.7445,0.7861,-1.0524,0.6933,0.3499,-0.1683,0.1001,-0.0597,0,-29.25,12.5,216.15,-83.55,44.5,53905,2015-10-07 16:21:13:441,1
-0.9385,9.0405,0.6129,-0.9239,9.7391,0.6825,0.017,-0.6024,-0.0668,0.1214,0.2003,-0.032,-1.75,-29.25,12,215.03,-83.27,53.55,54005,2015-10-07 16:21:13:541,1
-0.0383,9.1746,0.8619,-0.8838,9.741,0.7085,0.8455,-0.5664,0.1534,-0.017,-0.0682,0.0874,-2,-29.25,12.75,215.45,-83.26,52.66,54105,2015-10-07 16:21:13:641,1
-0.2873,8.9447,0.9002,-0.8019,9.7509,0.6692,0.5146,-0.8061,0.2311,0.13,0.115,0.0149,-2.25,-28,12.5,216.39,-83.58,52.81,54205,2015-10-07 16:21:13:741,1
-0.1724,9.098,0.8236,-0.6876,9.7631,0.6158,0.5152,-0.6651,0.2078,0.0362,0.1278,0.098,-1,-28.75,13,216.68,-84.6,48.15,54305,2015-10-07 16:21:13:841,1
-0.1724,8.5617,-0.0958,-0.5116,9.7838,0.4312,0.3392,-1.2221,-0.527,0.0085,-0.1321,0.1087,-2,-27.75,13,216.26,-86.09,49.87,54405,2015-10-07 16:21:13:941,1
1.7238,9.5002,0.0192,-0.1859,9.8021,0.2352,2.072,-0.0728,0.0695,-0.0149,-0.0703,0.277,-1.75,-28,13.5,208.55,-88.25,38.33,54505,2015-10-07 16:21:14:041,1
1.8004,9.6534,1.1301,0.1889,9.8008,0.2816,1.6535,-0.2807,0.9305,-0.1108,-0.2471,0.0341,-3,-26.5,14,166.18,-88.48,-6.38,54605,2015-10-07 16:21:14:141,1
1.6855,9.596,0.6321,0.2584,9.7985,0.3065,1.2625,-0.3362,0.3226,0.0554,-0.1236,-0.196,-3.5,-29,14,136.76,-87.57,-34.14,54704,2015-10-07 16:21:14:240,1
-0.7661,9.0214,-0.3065,0.0961,9.7984,0.3912,-0.6324,-0.9111,-0.4487,0.2088,-0.5838,-0.3579,-2.5,-30.25,13.75,159.78,-87.65,-13.8,54805,2015-10-07 16:21:14:341,1
-1.0151,8.7915,0.747,-0.1357,9.7939,0.4811,-0.8794,-1.0024,0.2658,-0.1257,-0.6285,-0.0107,-1.75,-30.75,14,184.64,-87.8,13.16,54905,2015-10-07 16:21:14:441,1
-1.3216,9.1554,0.0383,-0.035,9.7995,0.3736,-0.7515,-0.4526,-0.7393,0.0085,-0.4794,0.441,0,-29.5,13,195.16,-87.05,21.31,55005,2015-10-07 16:21:14:541,1
-2.4517,9.9407,-0.498,0.3547,9.7974,0.2377,-2.8064,0.1434,-0.7357,0.4453,-0.326,0.5348,-1,-28.75,13,167.29,-87.37,-13.99,55105,2015-10-07 16:21:14:641,1
-2.8156,10.8026,0.5363,0.4622,9.7925,0.2526,-3.2778,1.0101,0.2837,-0.0831,0.0043,0.1449,-2.5,-29.25,12.5,111.89,-86.95,-70,55205,2015-10-07 16:21:14:741,1
-3.486,10.9559,1.1109,-0.1861,9.7979,0.3695,-3.2999,1.1579,0.7414,0.3963,0.9566,-0.473,-5.25,-29.25,12.25,153.19,-87.61,-6.58,55305,2015-10-07 16:21:14:841,1
-3.0837,11.2432,1.5131,-0.9448,9.7605,0.1019,-1.5269,1.2432,1.9628,0.2386,1.534,-0.7968,-6,-28.75,13.25,217.17,-87.06,67.54,55404,2015-10-07 16:21:14:940,1
-2.6624,10.1706,0.498,-1.9371,9.5914,-0.651,-0.7252,0.5792,1.149,0.7265,1.0759,-1.2144,-3.75,-28.25,14.75,243.38,-82.1,96.78,55504,2015-10-07 16:21:15:040,1
-2.4325,9.8833,-0.3831,-2.9438,9.2348,-1.4909,-1.655,0.398,0.2207,-0.2088,0.9374,-0.5369,-2.25,-27.5,18,260.97,-70.64,117.87,55604,2015-10-07 16:21:15:140,1
0.0383,9.6343,-1.1492,-2.7263,9.3324,-1.2821,2.7646,0.3018,0.1328,-0.4197,-0.3963,0.2322,-2,-24.75,20.5,267.41,-72.11,115.19,55704,2015-10-07 16:21:15:240,1
2.5474,6.8378,-0.9768,-2.1052,9.5258,-0.9992,4.3461,-2.324,0.4246,0.3579,-1.6682,0.6562,-2.5,-25.5,20.75,268.24,-74.15,112.45,55804,2015-10-07 16:21:15:340,1
4.4245,6.857,-1.3599,-0.9538,9.635,-1.5581,5.8225,-3.3167,1.2431,1.436,-0.9268,2.0624,-2.25,-25.25,21.25,313.24,-79.26,148.53,55904,2015-10-07 16:21:15:440,1
3.1029,8.2935,0.249,1.1007,9.5914,-1.7214,3.3636,0.1336,0.1932,-0.6754,-0.0937,0.9012,-1.25,-20.75,24.25,12.21,-76.91,-170.85,56004,2015-10-07 16:21:15:540,1
1.9728,8.4851,-2.8156,1.339,9.5432,-1.8179,0.6421,-1.0737,-1.0752,0.473,0.1981,-0.0874,-2.25,-20.25,25,43.51,-78.25,-139.01,56104,2015-10-07 16:21:15:640,1
1.9537,8.6574,-2.375,1.4213,9.5551,-1.6884,0.5378,-0.9008,-0.7001,-0.2599,-0.0447,-0.1278,-6.5,-19.75,25.25,30.02,-76.73,-142.32,56204,2015-10-07 16:21:15:740,1
2.1069,8.7915,-1.6472,1.5002,9.5729,-1.51,0.543,-0.7235,0.0505,-0.0277,0.0405,0.066,-7.5,-21.75,25.25,34.43,-77.45,-136.59,56304,2015-10-07 16:21:15:840,1
2.0111,8.1977,-1.3982,1.632,9.5884,-1.2531,0.5,-1.4088,-0.1681,-0.3494,0.0405,0.066,-8.75,-20.25,24,32.2,-77.52,-133.87,56404,2015-10-07 16:21:15:940,1
2.8922,8.8681,-1.2258,1.8666,9.568,-1.0679,0.7958,-0.7573,-0.1196,-0.2535,0.0511,0.0916,-9.75,-22,22.25,40.79,-77.89,-127.52,56505,2015-10-07 16:21:16:041,1
2.6624,8.8873,-0.498,2.0291,9.5709,-0.6715,0.6333,-0.6836,0.1735,-0.1342,0.1577,-0.1108,-9.25,-22.5,22,47.85,-77.33,-119.77,56605,2015-10-07 16:21:16:141,1
2.9688,8.8681,-1.1109,1.84,9.6227,-0.4352,1.1288,-0.7545,-0.6757,0.0533,-0.0937,-0.6072,-10.5,-23,19.25,57.52,-77.41,-108.31,56704,2015-10-07 16:21:16:240,1
3.4477,8.5042,-0.3448,1.4274,9.7018,-0.0865,2.0202,-1.1976,-0.2582,-0.571,0.2024,-0.8501,-10,-24.25,18.25,59.84,-78.88,-103.31,56804,2015-10-07 16:21:16:340,1
-0.0958,8.3318,0.1532,0.6106,9.7874,0.0594,-0.7063,-1.4556,0.0938,0.3792,-0.3579,-1.012,-8.75,-23.75,16.75,82.54,-83.68,-77.49,56904,2015-10-07 16:21:16:440,1
1.9728,8.1403,-0.7278,0.2905,9.7997,0.2272,1.6823,-1.6594,-0.955,-0.473,-0.0767,-0.8884,-5.75,-27,16.25,110.65,-87.84,-51.97,57004,2015-10-07 16:21:16:540,1
-2.2601,7.5082,2.2027,-0.4168,9.7588,0.8735,-1.8434,-2.2506,1.3291,-0.6519,-0.1939,-0.2493,-1.5,-27.75,15,167.22,-86.94,0.17,57104,2015-10-07 16:21:16:640,1
-4.8076,10.2089,0.498,-0.4964,9.7259,1.1539,-3.679,0.9044,-0.5793,-0.4346,0.0703,0.6946,0.5,-29,13.75,205.31,-83.25,27.03,57204,2015-10-07 16:21:16:740,1
-3.4285,11.7795,1.5897,-0.2726,9.7158,1.3039,-3.1559,2.0637,0.2858,-0.2557,-0.2024,0.7137,1,-30.75,12.25,198.01,-82.42,19.13,57304,2015-10-07 16:21:16:840,1
-2.1452,11.0708,-0.0575,-0.0997,9.7545,1.0048,-2.0455,1.3163,-1.0622,0.2727,-0.0043,0.1854,0,-30.75,10.5,183.06,-82.68,4.14,57404,2015-10-07 16:21:16:940,1
-1.1492,9.3278,-0.1341,-0.1773,9.7822,0.6685,-1.2072,-0.0731,-1.2616,-0.081,0.0383,-0.0277,-2,-31,10.75,177.46,-85.68,7.24,57505,2015-10-07 16:21:17:041,1
-0.1724,9.4044,0.2873,-0.183,9.7814,0.6798,-0.0823,-0.697,0.1462,0.3153,-0.049,0.0618,-3.5,-31,11.25,177.73,-85.23,12.49,57605,2015-10-07 16:21:17:141,1
0.3639,9.2895,0.8811,-0.1879,9.7807,0.6884,0.43,-0.3616,-0.234,0.3302,0.0788,-0.0831,-2.75,-30.75,12,179.33,-85.47,13.24,57705,2015-10-07 16:21:17:241,1
0.3256,9.0214,1.0726,-0.1855,9.7868,0.5953,0.5094,-0.6513,0.317,0.0895,0.1236,0.0298,-1.75,-29.5,12,188.59,-86.32,19.35,57804,2015-10-07 16:21:17:340,1
0.249,9.2129,0.4022,-0.1642,9.7931,0.4877,0.466,-0.5797,-0.0415,0.0895,0.1342,-0.0447,-1.5,-29.25,12.75,192.81,-86.82,18.76,57905,2015-10-07 16:21:17:441,1
0.9577,9.5193,0.3448,-0.0976,9.7949,0.4698,1.0553,-0.2756,-0.125,0.0234,0.1023,0.049,-2.5,-28.75,13.25,188.66,-87.11,18.36,58006,2015-10-07 16:21:17:542,1
1.6472,9.2512,0.7853,-0.0757,9.7926,0.519,1.6944,-0.4081,0.3172,0.0043,-0.0043,-0.0895,-5.25,-29.25,13.75,179.67,-87.2,11.74,58104,2015-10-07 16:21:17:640,1
1.6472,8.6,0.4597,-0.0997,9.7931,0.5048,1.7469,-1.1932,-0.0451,-0.2578,-0.0234,-0.115,-4,-30.25,13.25,175.46,-87.19,12.08,58204,2015-10-07 16:21:17:740,1
1.0918,8.6574,0.4022,-0.057,9.7909,0.5526,1.1487,-1.1335,-0.1504,-0.1896,-0.0916,0.0277,-2.25,-30.5,14,178.78,-86.89,6.78,58305,2015-10-07 16:21:17:841,1
0.2682,9.2129,0.3256,0.1484,9.7887,0.5747,0.1389,-0.6332,-0.1916,0.066,-0.3792,0.1321,-1.25,-31.25,11.75,171.06,-86.36,-5.61,58404,2015-10-07 16:21:17:940,1
-0.8811,9.481,0.8045,0.348,9.7764,0.6871,-1.4889,-0.3181,-0.1861,0.1513,-0.5348,0.2386,-1.5,-31,12,157.22,-85.78,-22.17,58505,2015-10-07 16:21:18:041,1
-1.8771,10.0365,-0.0958,0.4489,9.7869,0.4316,-2.348,0.2098,-0.7206,-0.294,-0.9545,0.3558,-1.75,-30.25,12,141.3,-86.16,-35.1,58605,2015-10-07 16:21:18:141,1
-1.6089,10.3621,1.2641,0.4476,9.7691,0.7319,-2.0565,0.5931,0.5322,-0.0959,-0.4815,0.0383,-3,-31.25,12.25,139.94,-85.27,-33.59,58705,2015-10-07 16:21:18:241,1
-2.1644,10.8026,0.9194,0.3049,9.7746,0.7306,-2.4692,1.028,0.1887,0.1129,0.2919,0.0064,-4,-30.75,10.75,141.11,-85.24,-26.75,58805,2015-10-07 16:21:18:341,1
-3.4093,11.3964,0.6512,-0.3041,9.7978,0.2835,-3.02,1.6959,0.3095,0.4751,1.3657,-0.4282,-3.75,-30.25,11,151.52,-85.98,-13.52,58905,2015-10-07 16:21:18:441,1
-4.1755,10.9176,0.5363,-1.1554,9.7372,-0.1486,-3.2096,1.1586,0.5633,0.4581,1.6597,-0.6946,-2.75,-30.5,12.25,244.26,-84.89,89.48,59004,2015-10-07 16:21:18:540,1
-3.3327,8.1403,1.9154,-1.8396,9.6305,-0.2009,-1.2824,-0.5133,2.5951,-0.3665,1.4679,-0.5284,-2.5,-30.5,14.75,248.32,-79.12,96.23,59105,2015-10-07 16:21:18:641,1
-2.0686,8.9639,1.2641,-2.5214,9.448,-0.7399,2.0043,-0.5608,1.506,0.1747,0.6541,0.1193,-2.5,-28.75,16,249.31,-74.06,104.24,59205,2015-10-07 16:21:18:741,1
3.0646,8.6574,-1.4748,-1.8891,9.5502,-1.1813,5.4954,-0.9607,-0.6985,0.5902,-0.3153,0.6264,-1,-27,17.25,268.58,-76.09,115.02,59305,2015-10-07 16:21:18:841,1
6.9719,6.0908,-0.7087,-0.745,9.6693,-1.4563,6.9124,-3.2336,0.9966,0.4687,-1.6597,0.6541,-2.75,-26.25,20,301.17,-79.58,141.74,59404,2015-10-07 16:21:18:940,1
4.4436,7.4508,-1.5897,0.5929,9.6345,-1.7306,3.6592,-2.2795,0.1983,0.1342,-0.3473,1.5063,-3.75,-24.5,21.75,313.53,-80.4,152.91,59505,2015-10-07 16:21:19:041,1
2.7964,8.0637,-0.5938,1.5985,9.6029,-1.1826,1.1979,-1.5393,0.5889,-0.6924,0.686,0.3558,-4.5,-24,23,44.19,-78.33,-134.96,59605,2015-10-07 16:21:19:141,1
2.3559,8.8298,-1.7238,1.7302,9.589,-1.1084,0.6257,-0.7591,-0.6154,-0.0533,0.4282,-0.2003,-7,-22.25,23.25,49.57,-77.9,-122.64,59704,2015-10-07 16:21:19:240,1
2.375,9.0022,-1.6664,1.7933,9.559,-1.2573,0.5052,-0.5951,-0.5814,-0.0852,0.0874,0.0107,-9.5,-24.25,21.5,42.05,-77.32,-125.04,59805,2015-10-07 16:21:19:341,1
2.2218,9.1363,-1.2833,1.8772,9.5434,-1.2529,0.4979,-0.5221,-0.0496,0.1001,-0.017,0.115,-9.5,-23.25,20.5,43.08,-76.69,-123.72,59905,2015-10-07 16:21:19:441,1
2.3559,9.0788,-1.2833,2.0131,9.5181,-1.2342,0.3428,-0.4393,-0.0491,-0.0533,-0.147,0.0703,-9.75,-24.25,20.5,43.35,-76.25,-121.84,60005,2015-10-07 16:21:19:541,1
2.49,8.7915,-0.6321,2.1124,9.511,-1.1177,0.3776,-0.7195,0.4856,-0.1321,-0.1555,0.0703,-9.75,-23,21.25,48.02,-75.9,-117.88,60104,2015-10-07 16:21:19:640,1
2.8156,8.3127,-0.7087,2.1625,9.5119,-1.0091,0.5246,-1.2754,0.2362,-0.4922,-0.0107,0.0447,-9.75,-23.25,20.25,50.64,-75.92,-115.02,60205,2015-10-07 16:21:19:741,1
3.3136,7.7955,-0.0383,2.2926,9.5242,-0.4525,0.9112,-1.6306,0.3869,-0.5752,0.1427,-0.0874,-10.25,-25,19.5,56.95,-76.05,-110.06,60305,2015-10-07 16:21:19:841,1
3.2944,8.6,-0.3448,2.2764,9.5387,-0.0449,1.4542,-0.9523,0.1663,0.1981,-0.0213,-0.4176,-11,-24.5,18.5,75.24,-76.07,-90.29,60405,2015-10-07 16:21:19:941,1
2.8539,8.4276,0.5938,1.9384,9.6113,0.1913,0.9155,-1.1837,0.4024,0.2599,0.1747,-0.8671,-10.25,-25.5,16.5,80.02,-78.54,-84.36,60505,2015-10-07 16:21:20:041,1
1.3024,8.8107,0.3256,1.2526,9.7229,0.2578,0.0498,-0.9122,0.0679,-0.3473,0.179,-0.686,-10.25,-26.5,15,78.75,-82.51,-78.37,60604,2015-10-07 16:21:20:140,1
-0.4788,9.1746,1.3024,0.4748,9.7816,0.5147,-0.6471,-0.7603,0.7495,-0.1385,-0.0149,-0.7563,-6,-27.25,14.25,120.33,-85.91,-42.69,60704,2015-10-07 16:21:20:240,1
-4.1946,10.0748,1.5514,-0.434,9.7483,0.976,-4.2586,-0.0374,1.1883,0.0383,-0.1342,-0.0724,-1.25,-28.25,14.25,196.45,-83.75,23.97,60805,2015-10-07 16:21:20:341,1
-5.0374,10.7069,-0.0766,-0.9684,9.7189,0.881,-3.0147,0.7961,-1.1055,-0.2983,0.2045,0.3111,1.75,-30,12.75,208.79,-83.34,31.38,60905,2015-10-07 16:21:20:441,1
-2.2601,9.4619,0.2107,-1.0031,9.7259,0.7562,-1.0055,-0.0574,-1.2718,0.6157,0.0043,-0.0213,2.25,-31,12.25,223.15,-82.03,47.47,61005,2015-10-07 16:21:20:541,1
-0.3448,9.1554,1.0151,-0.9216,9.7421,0.6427,0.1756,-0.5059,0.014,0.3984,-0.0511,0.066,2,-30.5,12.25,231.86,-83.42,55.11,61104,2015-10-07 16:21:20:640,1
-0.3065,9.1554,0.4214,-0.747,9.7693,0.4161,0.5126,-0.7441,0.2648,0.1342,0.0554,0.1619,0.75,-32,12.25,233.64,-84.63,60.33,61205,2015-10-07 16:21:20:741,1
-0.0383,9.481,0,-0.627,9.7798,0.3643,0.7109,-0.3207,0.116,-0.049,0.0788,0.0874,0.5,-30.25,13.25,237.3,-85.41,61.98,61305,2015-10-07 16:21:20:841,1
0.4788,10.0556,0.249,-0.4816,9.7898,0.3124,0.9361,0.3037,-0.2506,0.0703,-0.0107,-0.1534,-0.5,-29,13.5,231.62,-86.64,57.03,61404,2015-10-07 16:21:20:940,1
-0.0766,9.481,-0.2107,-0.5574,9.7868,0.2796,0.6739,-0.2855,-0.3129,0.0021,-0.032,-0.1917,-0.75,-29.75,13.5,233.08,-86.35,63.36,61504,2015-10-07 16:21:21:040,1
0.9768,9.3661,1.2641,-0.6304,9.7773,0.4219,1.7162,-0.3878,0.7387,-0.1321,0.0554,-0.3707,-0.25,-29.5,13,228.82,-85.56,56.21,61604,2015-10-07 16:21:21:140,1
1.0918,8.6574,1.5323,-0.7012,9.7612,0.6301,1.6972,-1.1421,1.0172,0.196,0.3132,-0.2748,0,-30,12.75,219.98,-84.48,48.06,61704,2015-10-07 16:21:21:240,1
0.4022,8.6957,-1.2258,-0.7934,9.7708,0.2698,1.1573,-0.9984,-1.4574,0.4943,-0.1704,-0.2322,0.25,-30.5,13,228.94,-84.83,57.56,61805,2015-10-07 16:21:21:341,1
0.1341,8.5234,0.8619,-0.5935,9.7744,0.5285,0.947,-1.2879,0.4077,-0.2216,-0.2663,0.2599,1,-29.75,13.5,236.42,-84.92,61.32,61905,2015-10-07 16:21:21:441,1
-1.2067,8.849,1.7047,-0.3689,9.7904,0.4262,-0.907,-0.9363,1.1312,-0.5838,-0.8565,0.4922,2,-31.5,13,224.24,-86.7,40.88,62005,2015-10-07 16:21:21:541,1
-1.9537,9.8833,0.1915,-0.0094,9.7924,0.5289,-2.0011,0.1839,-0.1492,0.3451,-1.4615,0.1364,1,-31.75,12.5,224.24,-86.7,40.88,62105,2015-10-07 16:21:21:641,1
-2.739,9.1171,1.7047,0.2753,9.7732,0.7615,-3.0439,-0.2922,0.1687,0.0213,-1.2336,0.5092,0.75,-33.75,11.25,172.11,-86.3,-9.4,62205,2015-10-07 16:21:21:741,1
-3.7541,10.4579,1.494,0.4441,9.7417,1.0353,-4.1261,0.7491,0.657,-0.5156,-0.4027,0.6818,0.75,-33.25,10.75,165.35,-85.12,-23.48,62304,2015-10-07 16:21:21:840,1
-3.8882,11.5879,3.1603,0.2095,9.7158,1.3149,-3.9636,2.0445,1.788,0.2706,1.1143,0.0213,-1,-32.75,9.25,163.53,-82.07,-18.18,62405,2015-10-07 16:21:21:941,1
-3.3902,11.9902,0.9768,-0.7588,9.7725,0.306,-2.6123,2.0836,0.8815,0.9076,2.4096,-0.9332,-3.5,-32.75,7.5,187.33,-85.67,30,62505,2015-10-07 16:21:22:041,1
-3.4668,11.1091,1.5131,-1.8686,9.6086,-0.5947,-1.445,1.8453,1.5907,0.2919,2.1881,-0.8458,-3.25,-31.5,10,212.36,-85.21,68.03,62604,2015-10-07 16:21:22:140,1
-3.4668,8.3318,1.5131,-2.7961,9.3266,-1.1689,-0.9259,-0.8461,2.4833,0.4432,0.5731,-0.1236,-1.5,-28.75,14.25,254.61,-74.3,112.08,62705,2015-10-07 16:21:22:241,1
1.1301,8.4276,0.996,-2.7512,9.3442,-1.1349,3.7919,-0.9384,2.1636,0.3835,-0.2557,0.4495,-0.25,-28,17.25,261.73,-71.34,114.63,62805,2015-10-07 16:21:22:341,1
3.984,6.5314,-0.9577,-1.3932,9.6608,-0.9475,5.3729,-2.9309,-0.0445,0.115,-0.6669,0.7691,0,-26.75,19,272.68,-76.38,112.86,62905,2015-10-07 16:21:22:441,1
5.4779,6.2824,-2.1069,-0.0344,9.7029,-1.422,5.5924,-3.5978,-0.8682,0.5262,-1.3721,1.3955,-4.5,-25.25,18.75,284.19,-80.11,124.22,63004,2015-10-07 16:21:22:540,1
4.6352,8.9447,-0.5363,1.2551,9.5842,-1.655,3.3801,-0.6394,1.1187,-0.6775,-0.3409,0.9289,-6.75,-24.25,20.25,341.13,-81.66,178.61,63104,2015-10-07 16:21:22:640,1
2.1644,8.102,-1.0343,1.6477,9.6201,-0.954,0.8039,-1.4032,-0.1953,0.0085,0.4282,0.1534,-9.25,-23,22,44.39,-78.98,-121.4,63205,2015-10-07 16:21:22:741,1
2.7198,8.6957,-1.6855,1.7964,9.5869,-1.0176,1.0192,-0.9103,-0.553,0.1406,0.3728,-0.0959,-11,-22.25,20.5,40.39,-78.09,-119.77,63305,2015-10-07 16:21:22:841,1
2.7007,8.9064,-1.3408,1.9901,9.5387,-1.1057,0.6723,-0.6898,-0.599,0.081,0.0874,0.115,-12,-23.25,20.25,37.48,-76.75,-120.29,63404,2015-10-07 16:21:22:940,1
2.7007,9.0788,-1.8387,2.1698,9.4845,-1.2275,0.9139,-0.3674,-0.573,-0.0234,0.066,0.0788,-13,-22.5,20.5,38.25,-75.55,-118.89,63505,2015-10-07 16:21:23:041,1
2.7964,8.8298,-1.2641,2.1539,9.4902,-1.2114,0.768,-0.571,-0.3339,-0.3174,0.0874,-0.1811,-12.75,-20.5,20.75,38.38,-75.07,-119.11,63604,2015-10-07 16:21:23:140,1
2.624,8.2744,-1.1109,2.0351,9.5539,-0.8674,0.4449,-1.4417,-0.2295,-0.7393,0.179,-0.1577,-13.5,-22.25,20.75,39.27,-75.81,-117.51,63704,2015-10-07 16:21:23:240,1
2.7007,8.2744,-0.3065,1.9922,9.5904,-0.4758,0.7084,-1.316,0.1693,-0.1747,0.0554,-0.1854,-13,-22.5,19.5,53.18,-77.93,-103.42,63806,2015-10-07 16:21:23:342,1
3.1029,8.2169,0.6704,1.8413,9.6322,-0.0086,1.5297,-1.3579,0.564,-0.2088,0.13,-0.4304,-12.5,-22.75,18.25,65.59,-78.74,-92.21,63905,2015-10-07 16:21:23:441,1
3.4477,8.1211,0.3831,1.3484,9.7059,0.3833,1.2374,-1.6614,0.3254,-0.4581,0.294,-0.7819,-12.5,-24,16,63.28,-79.18,-90.27,64004,2015-10-07 16:21:23:540,1
0.5555,7.7189,3.1987,0.8261,9.7375,0.8184,-0.2154,-2.0165,2.3055,-0.4453,0.1108,-0.4858,-11.25,-25.5,14,90.95,-83.23,-60.48,64105,2015-10-07 16:21:23:641,1
-0.2682,9.1171,1.2833,0.2502,9.7756,0.7384,-0.5889,-0.6565,0.5457,-0.0533,0.2194,-0.2706,-9.5,-26.75,11.75,113.9,-84.75,-37.84,64205,2015-10-07 16:21:23:741,1
-1.5706,9.596,1.7813,-0.0499,9.7573,0.9808,-1.5207,-0.1614,0.8004,-0.3792,0.1726,0.1491,-6.25,-27,11.75,144.09,-85.9,-14.12,64305,2015-10-07 16:21:23:841,1
-2.1261,9.5002,1.1301,-0.1081,9.7547,1.0023,-2.0179,-0.2545,0.1278,-0.3473,0.0895,0.5326,-3.25,-28.5,11.75,177.84,-84.77,11.44,64405,2015-10-07 16:21:23:941,1
-2.7581,11.5113,0.4788,0.1672,9.7388,1.1398,-3.0417,1.7977,-1.0268,-0.7989,0.0085,0.7329,-2.75,-29.5,10.5,166.05,-84.71,-1.87,64505,2015-10-07 16:21:24:041,1
-1.2833,10.3621,0.4405,0.2121,9.746,1.0683,-1.9695,0.9371,-1.3706,-0.2812,-0.081,0.2109,-4.5,-29.75,9.25,153.05,-83.75,-11.51,64605,2015-10-07 16:21:24:141,1
0.0575,9.8833,0.0958,0.2142,9.7482,1.0477,-0.2245,0.1008,-0.4539,0.294,-0.017,0.1065,-6.25,-30.5,7.75,145.26,-83.02,-9.69,64704,2015-10-07 16:21:24:240,1
0.1149,9.0405,0.996,0.1183,9.7574,0.974,-0.0034,-0.7169,0.022,0.4836,-0.1214,-0.0341,-7.25,-31.5,8,141.09,-83.5,-9.54,64804,2015-10-07 16:21:24:340,1
1.0726,9.1937,1.5706,0.1281,9.7627,0.9186,0.9062,-0.4923,0.6711,0.5135,-0.0852,-0.017,-6.75,-30,8.75,143.39,-84.9,-6.66,64904,2015-10-07 16:21:24:440,1
0.8619,9.098,0.8428,0.1091,9.7838,0.6599,0.7337,-0.5518,0.0105,-0.1214,0.0746,-0.0192,-7.5,-30,9,139.65,-86.01,-9.22,65005,2015-10-07 16:21:24:541,1
0.7853,9.232,0.6704,0.0943,9.7819,0.6894,0.7293,-0.569,1.0000E-04,-0.0107,-0.0256,-0.0107,-7,-29.5,10.5,142.77,-85.85,-10.27,65105,2015-10-07 16:21:24:641,1
0.7661,9.0788,0.6704,0.1191,9.7779,0.7409,0.7428,-0.565,-0.1089,0.1257,0.0639,-0.0575,-7.75,-29.75,11.25,141.64,-85.67,-8.19,65205,2015-10-07 16:21:24:741,1
1.2833,9.232,0.8045,0.1473,9.7757,0.764,1.0493,-0.5435,0.1132,0.0767,-0.0746,-0.0234,-7.75,-29.5,10.5,139.95,-85.44,-10.21,65305,2015-10-07 16:21:24:841,1
1.7238,9.3087,0.5746,0.2193,9.7803,0.6845,1.4962,-0.4717,-0.1062,0.0959,-0.0831,-0.1917,-6.25,-30.25,11,141.32,-85.63,-16.53,65405,2015-10-07 16:21:24:941,1
2.0111,9.2512,0.5555,0.2926,9.7795,0.6681,1.7133,-0.5283,-0.1097,0.0064,-0.2855,-0.1278,-5.75,-29,11,136.37,-85.74,-21.76,65505,2015-10-07 16:21:25:041,1
1.2258,8.6383,1.494,0.3273,9.759,0.9085,0.8985,-1.1207,0.5855,-0.1214,-0.2876,-0.0937,-4.75,-29,10.75,142.13,-84.65,-21.22,65605,2015-10-07 16:21:25:141,1
0.5938,9.1937,0.1341,0.3051,9.7669,0.8277,-0.0832,-0.7594,-0.3105,-0.6008,-0.7691,0.0895,-4.75,-30,10.25,141.7,-84.84,-20.23,65705,2015-10-07 16:21:25:241,1
-0.6512,9.0788,1.0534,0.4076,9.749,0.98,-1.1761,-0.6338,-0.1085,0.2578,-0.9438,0.2322,-4,-31.5,9.75,145.61,-83.79,-22.58,65805,2015-10-07 16:21:25:341,1
-2.2218,9.481,1.3408,0.5944,9.7492,0.8779,-2.6948,-0.2843,0.5149,-0.1896,-1.0248,0.4687,-3.75,-30.75,9.25,135.59,-83.79,-34.1,65905,2015-10-07 16:21:25:441,1
-4.118,10.7069,0.1149,0.7552,9.7405,0.8504,-4.9937,1.1582,-0.4253,-0.3941,-0.4155,0.4005,-4.25,-30.75,9.75,129.2,-83.41,-43.71,66005,2015-10-07 16:21:25:541,1
-4.0989,11.6262,1.3408,0.4729,9.7332,1.1005,-4.8017,1.6823,0.5084,-0.0746,0.9566,0.0469,-5,-30.75,9.75,130.64,-83.34,-41.61,66105,2015-10-07 16:21:25:641,1
-2.9688,12.5839,0.3639,-0.9276,9.7625,0.0631,-2.0412,2.8214,0.3008,1.2059,1.4637,-0.8991,-6.5,-31.75,8.5,148.2,-83.59,-7.98,66205,2015-10-07 16:21:25:741,1
-3.7733,10.7452,1.1109,-1.9105,9.5941,-0.6884,-1.8627,1.1511,1.7993,1.5105,0.931,-1.2272,-4.75,-31.75,10.75,237.3,-80.7,102.71,66305,2015-10-07 16:21:25:841,1
-2.6624,8.0445,1.7813,-2.8036,9.3132,-1.2551,0.1412,-1.2686,3.0364,0.3004,0.2237,-0.5965,-4.5,-28.5,15,243.26,-74.86,114.57,66405,2015-10-07 16:21:25:941,1
6.0717,8.4659,-1.992,-2.4529,9.3846,-1.4429,8.5246,-0.9187,-0.5491,-1.0887,-0.5859,0.5795,-1.5,-26.5,18,253.54,-71.02,113.55,66505,2015-10-07 16:21:26:041,1
5.3822,6.3973,-0.3831,-1.3504,9.6245,-1.3097,7.6137,-2.7867,0.5052,0.1427,-0.9012,0.6903,-1.75,-24.75,19.5,295.35,-78.94,134.12,66605,2015-10-07 16:21:26:141,1
4.7693,5.7269,-0.3448,0.7209,9.7096,-1.1726,4.0483,-3.9826,0.8278,-0.1172,-0.7649,1.6533,-4,-23.25,21,305.22,-80.06,141.13,66705,2015-10-07 16:21:26:241,1
3.0071,7.9296,0.0575,1.7808,9.6252,-0.5957,1.2264,-1.6956,0.6532,-0.946,1.029,0.1577,-6.5,-23.75,21.5,22.06,-81.93,-148.42,66805,2015-10-07 16:21:26:341,1
3.0263,9.2512,-2.7773,2.0703,9.5487,-0.8403,1.2624,-0.0677,-2.0328,0.3771,0.2812,0.1811,-10,-22.75,19.75,61.13,-78.96,-108.5,66905,2015-10-07 16:21:26:441,1
3.1987,8.9256,-1.8771,2.2807,9.4779,-1.0669,1.301,-0.6098,-0.6186,0.2407,-0.0447,0.0937,-12.75,-21.25,19.25,41.04,-75.75,-114.06,67005,2015-10-07 16:21:26:541,1
3.0646,8.6957,-1.4365,2.4068,9.4181,-1.2949,0.6578,-0.7224,-0.1416,0.0916,0.1875,0.1598,-12.75,-21.5,19.75,38.79,-74.54,-116.43,67105,2015-10-07 16:21:26:641,1
2.7964,8.3318,-1.3024,2.494,9.396,-1.2907,0.5323,-0.9492,0.1223,-0.3238,0.0724,0.13,-13.25,-22,20.75,38.53,-73.46,-120.12,67204,2015-10-07 16:21:26:740,1
3.371,7.9487,-0.8428,2.651,9.3846,-1.0354,0.7392,-1.3592,0.365,-0.3963,0.2834,-0.0128,-12.75,-20.25,20.75,45.03,-73.13,-114.25,67305,2015-10-07 16:21:26:841,1
2.8539,7.7572,0.8236,2.8071,9.3834,-0.4926,0.5065,-1.5304,0.4543,0.0511,0.0703,0.1449,-13.5,-21.5,20.25,58.4,-73.37,-102.46,67405,2015-10-07 16:21:26:941,1
4.0989,8.351,0.1724,2.8655,9.378,-0.1082,1.2334,-1.0271,0.2805,-0.6605,0.1726,-0.3899,-14,-22.75,19,68.32,-73,-92.16,67505,2015-10-07 16:21:27:041,1
3.3519,8.9064,-1.5706,2.4607,9.4886,0.2852,1.7305,-0.7969,0.4951,0.0895,0.1534,-0.6626,-14.5,-23.5,17.25,75.26,-74.6,-81.91,67604,2015-10-07 16:21:27:140,1
2.624,8.9064,0.0575,1.9186,9.6077,0.4269,0.5902,-0.6583,0.0055,-0.147,-0.2855,-0.8735,-14.25,-25,15.25,76.34,-77.02,-76.79,67705,2015-10-07 16:21:27:241,1
1.494,8.8681,0.7087,1.2636,9.7087,0.5616,-0.5741,-1.0895,0.8174,-0.2258,-0.3856,-0.8139,-13,-24,14.25,75.72,-80.14,-75.31,67805,2015-10-07 16:21:27:341,1
-0.2107,8.5617,1.6664,0.5461,9.7631,0.7443,-0.8722,-1.3374,1.3994,0.1001,-0.3707,-0.3643,-9.75,-26.75,13.5,90.28,-83.44,-60.86,67904,2015-10-07 16:21:27:440,1
-3.1029,8.6766,1.6855,-0.0097,9.7588,0.9672,-3.1013,-1.0906,0.8065,-0.5539,-0.326,0.1342,-5,-27.5,12.5,158.52,-85.88,-3.31,68004,2015-10-07 16:21:27:540,1
-5.0949,11.1857,1.8962,-0.1506,9.6742,1.5993,-4.9443,1.5115,0.2969,-0.6796,-0.2791,0.6328,-1.5,-28.5,12.25,173,-83.26,4.38,68104,2015-10-07 16:21:27:640,1
-3.3902,11.3198,0.9577,-0.2508,9.6607,1.6666,-3.1394,1.659,-0.7089,0.0554,0.3941,0.3792,-0.75,-30.75,10,181.88,-80.1,8.56,68204,2015-10-07 16:21:27:740,1
-0.3256,9.5577,0.3065,-0.2683,9.7389,1.119,-0.3639,0.0197,-1.0643,0.4261,0.196,0.0618,-1.75,-31.75,8,178.78,-82.49,12.21,68304,2015-10-07 16:21:27:840,1
0.6129,9.3661,0.8811,-0.257,9.7605,0.9153,1.1871,-0.335,-0.2476,0.1385,-0.0234,-0.2003,-1.25,-31,7.5,184.91,-84.14,13.94,68404,2015-10-07 16:21:27:940,1
-0.0766,8.9639,1.1492,-0.3254,9.7577,0.9231,0.3141,-0.8706,0.0711,0.0341,0.1172,-0.1342,-2.5,-30.75,8.5,177.27,-84.3,16.86,68505,2015-10-07 16:21:28:041,1
0.2682,9.1171,0.8236,-0.298,9.7608,0.8987,0.5661,-0.6437,-0.0751,-0.0149,0.0767,0.1044,-2.75,-30.25,9.75,181.29,-84.46,18.34,68604,2015-10-07 16:21:28:140,1
0.4405,9.0788,0.5555,-0.2362,9.7678,0.84,0.6768,-0.6889,-0.2846,0.0852,-0.0256,-0.0043,-2.75,-29.25,9.25,177.85,-84.89,15.71,68705,2015-10-07 16:21:28:241,1
0.0575,8.8107,0.5171,-0.2012,9.7698,0.825,0.2012,-0.9783,-0.2312,-0.0362,-0.0746,-0.0383,-1.25,-28.25,9.5,186.46,-85.03,13.7,68805,2015-10-07 16:21:28:341,1
0.5363,9.4236,0.6895,-0.0254,9.7768,0.7641,0.6383,-0.2383,-0.0171,-0.0362,-0.0959,0.147,-2.5,-27.5,10.25,175.38,-85.47,5.74,68905,2015-10-07 16:21:28:441,1
1.0534,9.73,0.8236,0.093,9.7805,0.709,0.8996,0.0831,-0.1685,-0.0874,-0.1129,0.0043,-3.5,-29.25,11,164.52,-85.73,-3.08,69005,2015-10-07 16:21:28:541,1
1.6472,9.1937,1.0151,0.1217,9.7782,0.7366,1.5255,-0.5845,0.2786,-0.0021,-0.066,-0.1321,-4,-29.75,10,159.18,-85.64,-8.53,69105,2015-10-07 16:21:28:641,1
1.9345,8.9064,0.6321,0.1636,9.7858,0.6176,1.7709,-0.8794,0.0145,-0.2152,0.017,-0.2237,-4.25,-30,10.25,148.72,-86.26,-14.84,69205,2015-10-07 16:21:28:741,1
0.8428,8.1403,1.1875,0.1798,9.7823,0.6672,0.663,-1.642,0.5203,-0.1257,-0.0447,-0.0192,-3,-29,10.25,153.54,-86.19,-14.43,69305,2015-10-07 16:21:28:841,1
-0.6321,8.6766,-0.0958,0.1912,9.7901,0.5363,-0.5742,-1.4391,-0.1532,0.1129,-0.8799,0.3004,-3.25,-30.25,10.5,149.53,-86.67,-19.62,69405,2015-10-07 16:21:28:941,1
-1.1684,9.2895,0.8045,0.552,9.7695,0.6503,-1.6551,-0.4841,0.1646,-0.2067,-1.2485,0.4027,-2.5,-30.25,10.5,138.22,-85.01,-40.33,69505,2015-10-07 16:21:29:041,1
-1.992,10.3621,1.8579,0.767,9.7389,0.8579,-2.7815,0.6325,0.919,-0.571,-1.0887,0.4176,-3.5,-29.75,9,134.87,-83.26,-41.8,69605,2015-10-07 16:21:29:141,1
-2.9688,10.6111,1.3024,0.6296,9.7395,0.9575,-3.5984,0.8716,0.3449,0.0746,-0.2834,0.0469,-2.75,-30,8.25,138.21,-82.6,-38.91,69705,2015-10-07 16:21:29:241,1
-3.122,11.3389,0.7661,0.2019,9.7768,0.7376,-3.324,1.5622,0.0285,0.2599,1.2016,-0.3665,-2.75,-30,7.5,143.09,-83.68,-29.63,69804,2015-10-07 16:21:29:340,1
-3.1603,11.7029,0.5171,-0.5118,9.7877,0.3318,-3.0729,1.685,0.5755,0.6924,2.2243,-0.0447,-3.25,-32,8.75,151.76,-85.53,-15.31,69904,2015-10-07 16:21:29:440,1
-4.4819,11.1091,2.2027,-1.2852,9.7218,0.0764,-3.2925,1.3761,2.0496,0.8671,1.6639,-0.62,-2.5,-31.25,10,230.52,-84.01,75.91,70005,2015-10-07 16:21:29:541,1
-3.5051,9.6726,2.5666,-2.2781,9.5226,-0.5487,-1.336,0.1188,3.0032,1.1761,0.7201,-1.1377,-3.75,-30.5,10.5,232.12,-82.46,86.6,70105,2015-10-07 16:21:29:641,1
-0.1724,7.8147,0.8428,-2.3427,9.4754,-0.9486,2.3271,-1.6186,1.8108,-0.0895,0.4495,0.963,-3,-27,13.25,244.86,-72.69,111.28,70205,2015-10-07 16:21:29:741,1
6.6463,6.0717,-1.6855,-1.6925,9.5593,-1.3875,8.3388,-3.4876,-0.2981,-0.4538,-1.2932,0.6136,-2.25,-26.25,16.5,261.16,-74.7,111.78,70304,2015-10-07 16:21:29:840,1
5.5162,4.8076,-2.2027,-0.2718,9.6649,-1.6391,5.788,-4.8573,-0.5635,0.4048,-0.7478,2.2861,-2.5,-25.5,18.25,284.1,-77.1,129.34,70404,2015-10-07 16:21:29:940,1
4.2329,8.2552,-2.6049,1.697,9.4857,-1.8198,2.6701,-1.5753,-0.1914,-1.2037,0.9076,0.8181,-3.25,-22.5,21,340.16,-80.25,170.59,70504,2015-10-07 16:21:30:040,1
2.624,8.3893,-2.3367,2.0374,9.489,-1.4065,0.625,-0.9273,-1.1218,-0.0703,0.4623,-0.0469,-7.25,-21.5,22.25,37.29,-75.3,-137,70604,2015-10-07 16:21:30:140,1
2.6432,9.0214,-2.5474,2.0481,9.4627,-1.5597,0.4889,-0.4851,-1.1433,-0.0511,0.0618,-0.0383,-10.25,-22,20.75,40.12,-75.14,-124.49,70704,2015-10-07 16:21:30:240,1
2.5474,9.0405,-1.6472,2.0407,9.4726,-1.5087,0.5047,-0.431,-0.1345,-0.2088,-0.0192,-0.0895,-10.75,-23.5,21.5,34.37,-74.78,-127.29,70804,2015-10-07 16:21:30:340,1
3.0454,8.7149,-0.7661,2.1076,9.4938,-1.2633,0.8038,-0.8172,0.6504,-0.0937,0.0724,-0.1427,-11.25,-22.5,21.75,39.34,-75.27,-123.43,70905,2015-10-07 16:21:30:441,1
3.1795,7.7189,-0.5938,2.2415,9.4859,-1.0786,0.8289,-1.5977,-0.0693,-0.5774,0.2131,0.017,-10.75,-22.25,20.75,44.89,-75.62,-117.88,71004,2015-10-07 16:21:30:540,1
3.6009,7.6614,-0.5171,2.4229,9.4932,-0.4224,1.2905,-1.6236,0.8638,-0.816,0.5028,-0.1236,-11.5,-22,20.25,54.52,-75.41,-109.21,71105,2015-10-07 16:21:30:641,1
2.7773,8.7532,-0.8811,2.2122,9.546,-0.389,0.6296,-0.8119,-0.6208,-0.9523,0.5198,-0.4218,-11.75,-22.75,18.5,64.03,-76.21,-97.34,71205,2015-10-07 16:21:30:741,1
1.0918,8.9639,-0.6129,1.8082,9.6385,0.0277,2.1064,-0.891,0.2337,-0.4176,0.1044,-0.8203,-12.25,-22.75,17,69.86,-78.43,-87.55,71305,2015-10-07 16:21:30:841,1
0.3256,8.3701,0.0575,1.2978,9.717,0.2556,0.8356,-1.2399,-0.9248,-0.4794,-0.0575,-0.8373,-10.25,-24.75,15.5,79.44,-82.25,-78.86,71405,2015-10-07 16:21:30:941,1
-1.0343,8.3318,2.1644,0.6623,9.7582,0.7143,-0.6815,-0.89,-0.0248,-0.8693,-0.1704,-0.6434,-8.5,-27,13.75,90.21,-83.62,-68.39,71505,2015-10-07 16:21:31:041,1
-4.6352,9.232,1.8771,0.0326,9.6776,1.5855,-4.8976,-0.0816,0.4448,-0.669,-0.0937,0.3835,-6,-26,11.75,153.3,-82.26,-6.67,71605,2015-10-07 16:21:31:141,1
-2.2984,11.3198,3.1412,0.0343,9.6316,1.8442,-1.6303,1.7824,0.8085,0.3856,-0.1598,0.3324,-2.75,-29,9.75,169.45,-80.23,1.34,71704,2015-10-07 16:21:31:240,1
-1.0726,10.5919,0.996,0.1083,9.709,1.3761,-1.0492,1.2402,-0.2726,0.3409,0.049,-0.0298,-2.5,-29.25,7.75,167.65,-80.89,-5,71804,2015-10-07 16:21:31:340,1
-0.8811,9.9982,0.1532,-0.0948,9.7616,0.9343,-0.7363,0.14,-0.8097,0.0128,0.0767,-0.0405,-3.5,-28.5,9,165.96,-83.56,-0.13,71905,2015-10-07 16:21:31:441,1
-0.2298,9.0214,0.5938,-0.2807,9.7602,0.9109,0.0508,-0.7389,-0.3171,0.2429,0.0064,-0.1023,-3.5,-27.75,9.75,175.84,-84.06,11.41,72005,2015-10-07 16:21:31:541,1
0.2873,8.9256,1.0726,-0.2823,9.7629,0.8817,0.5696,-0.8373,0.1909,0.0788,0.0597,-0.0213,-2.5,-28.25,9.25,180.86,-84.68,19.53,72105,2015-10-07 16:21:31:641,1
0.0766,8.7532,1.1109,-0.2896,9.7669,0.8328,0.3663,-1.0137,0.2781,-0.049,-0.0362,0.032,-2.5,-29,10,186.73,-84.94,19.7,72205,2015-10-07 16:21:31:741,1
0.2107,9.098,0.9768,-0.2111,9.7713,0.8052,0.4218,-0.6733,0.1717,0.0085,-0.1087,-0.0554,-2.5,-29.25,10.25,184.93,-85.08,17.42,72305,2015-10-07 16:21:31:841,1
1.0918,9.481,1.0726,-0.0401,9.7774,0.7562,1.1319,-0.2963,0.3164,0.0405,0.0064,0.1768,-4.75,-28.5,10.75,173.28,-85.28,13.62,72405,2015-10-07 16:21:31:941,1
1.3982,9.3661,0.9194,0.0055,9.7795,0.7285,1.3927,-0.4134,0.1908,-0.0021,0.0426,-0.1577,-4.5,-27.5,11.25,161.75,-85.57,3.04,72505,2015-10-07 16:21:32:041,1
1.7621,8.7724,0.9385,0.0705,9.7806,0.7104,1.6916,-1.0083,0.2282,-0.0703,-0.032,0.0085,-4.75,-27.5,11,163.27,-85.73,-0.87,72605,2015-10-07 16:21:32:141,1
1.3982,8.9256,1.1684,0.2193,9.7779,0.7173,1.4854,-0.6033,-0.4109,-0.3281,-0.0937,-0.0064,-3.5,-28.5,10.25,153.41,-85.48,-11.55,72705,2015-10-07 16:21:32:241,1
0.6129,9.2895,-0.1724,0.2825,9.779,0.6795,0.4836,-0.3171,-1.2541,-0.3451,-0.2961,-0.0426,-3.75,-29.5,10.25,152.48,-84.57,-17.45,72805,2015-10-07 16:21:32:341,1
-0.2682,8.9064,0.5363,0.3002,9.7706,0.7841,-1.028,-0.96,-0.401,0.4581,-0.784,-0.0895,-2.75,-29,10.25,150.83,-84.97,-19.43,72904,2015-10-07 16:21:32:440,1
-1.2258,8.7532,1.1684,0.3249,9.7806,0.6363,-1.5699,-1.1423,0.7044,-0.2003,-0.9779,0.3068,-2.25,-30,10.5,149.47,-86.17,-25.4,73004,2015-10-07 16:21:32:540,1
-2.0877,10.0365,0.6895,0.6185,9.7687,0.5996,-2.5722,-0.1153,0.856,0.1747,-1.2442,0.5241,-2.5,-29.75,10,144.44,-85.6,-31.83,73104,2015-10-07 16:21:32:640,1
-2.4517,10.8601,1.0151,0.9209,9.736,0.7301,-3.3726,1.1241,0.285,-0.375,-0.5071,0.4069,-1,-30,9.75,133.73,-83.93,-53.62,73205,2015-10-07 16:21:32:741,1
-2.3367,11.6071,1.4365,0.787,9.7144,1.0874,-3.1237,1.8927,0.3491,-0.2706,0.9396,0.0682,-3.5,-30.25,10,135.41,-82.24,-43.5,73305,2015-10-07 16:21:32:841,1
-2.0111,11.722,1.6281,0.2814,9.7303,1.1886,-2.2925,1.9917,0.4394,1.1143,2.0219,-0.3728,-5.25,-32.75,8,143.33,-82.33,-20.65,73405,2015-10-07 16:21:32:941,1
-3.3136,11.7795,-0.249,-0.5453,9.791,-0.0918,-2.7683,1.9884,-0.1572,0.3345,1.3231,-0.2578,-6.75,-31.5,8,189.39,-87.66,51.68,73505,2015-10-07 16:21:33:041,1
-3.1987,8.4851,1.4557,-1.4811,9.6763,-0.5884,-1.7175,-1.1912,2.0441,1.4083,0.3068,-1.3912,-6.25,-30.25,11.5,246.98,-83.93,106.06,73605,2015-10-07 16:21:33:141,1
-0.1724,8.5808,2.873,-1.9823,9.5604,-0.9159,1.8099,-0.9796,3.7889,0.3345,0.4985,0.4964,-6.5,-27,15.5,254.48,-76.29,116.37,73705,2015-10-07 16:21:33:241,1
2.4517,8.9256,0.8619,-1.8729,9.5535,-1.1807,3.9926,-1.0323,1.1357,0.7393,-0.735,0.3089,-5,-24.5,18.25,269.4,-76.95,122.23,73805,2015-10-07 16:21:33:341,1
4.9416,5.363,-0.9194,-0.3637,9.7064,-1.3506,6.175,-4.1953,0.7321,0.8096,-1.4402,0.9289,-3.5,-23.75,20.75,311.12,-82.01,146.37,73904,2015-10-07 16:21:33:440,1
4.1563,7.3358,-2.1069,1.1269,9.5312,-2.0141,3.802,-2.6337,-0.4146,0.6903,-0.6456,1.2591,-4.75,-20.75,21.25,6.21,-79.42,-161.61,74004,2015-10-07 16:21:33:540,1
2.9305,8.1594,-2.1452,1.8054,9.4527,-1.8862,1.1691,-1.1953,-0.28,-0.1278,0.0916,0.0085,-7.75,-20,24.5,31.38,-74.79,-146.78,74105,2015-10-07 16:21:33:641,1
3.0454,8.8873,-2.8347,1.971,9.4204,-1.882,1.1008,-0.3154,-1.0837,0.0618,0.1001,0.0298,-10.5,-19.5,24,28.93,-74.44,-134.83,74205,2015-10-07 16:21:33:741,1
3.371,9.5193,-2.4517,2.1147,9.3864,-1.8957,1.2053,0.1161,-0.4223,-0.1513,0.1108,0.0064,-10.5,-19.75,24.75,33.27,-73.19,-132.92,74305,2015-10-07 16:21:33:841,1
3.1603,8.849,-1.3982,2.1166,9.43,-1.6627,1.0437,-0.5811,0.2645,-0.1214,0.0128,-0.0383,-10,-20.75,24.25,37.38,-73.9,-129.03,74404,2015-10-07 16:21:33:940,1
3.3136,8.5617,-1.4174,2.0719,9.4714,-1.4729,1.2416,-0.9098,0.0556,-0.3558,0.3643,-0.2045,-10.75,-22.5,23.25,38.02,-74.98,-125.41,74504,2015-10-07 16:21:34:040,1
2.6815,7.9871,-0.7278,1.8758,9.5668,-1.0617,0.53,-1.5499,0.5023,-0.5007,0.4474,-0.3174,-10.25,-23.25,22.25,41.13,-75.53,-122.87,74604,2015-10-07 16:21:34:140,1
0.8045,7.9679,-0.1915,1.3422,9.6946,-0.6196,-0.2927,-1.776,0.6345,-0.5028,0.4985,-0.588,-8.5,-24.5,20.25,51.33,-81.33,-114.78,74704,2015-10-07 16:21:34:240,1
0.6321,7.853,-0.7087,0.7289,9.7733,-0.3491,-0.0968,-1.9203,-0.3596,-0.5092,0.0469,-0.9694,-6.25,-26,19,51.84,-85.27,-115.59,74804,2015-10-07 16:21:34:340,1
0.7087,7.8147,0.1915,0.1084,9.8056,-0.0953,0.3704,-1.9909,0.1336,-0.0682,-0.3451,-0.7862,-4.75,-26.5,16.5,67.17,-86.84,-98.57,74904,2015-10-07 16:21:34:440,1
-1.1492,8.2361,0.4214,-0.2342,9.8024,0.1664,-0.6469,-1.7005,0.5997,-0.3878,-0.4368,-0.2557,-2.75,-28.25,15.75,222.05,-88.32,54.6,75005,2015-10-07 16:21:34:541,1
-5.2098,9.9982,0.8045,-0.4846,9.7734,0.6447,-4.7252,0.2248,0.1597,-0.4581,-0.1896,0.7265,-0.75,-29.5,14.25,208.3,-85.28,36.93,75105,2015-10-07 16:21:34:641,1
-3.1987,12.5456,0.8619,-0.2628,9.7696,0.8107,-2.9359,2.7761,0.0512,0.1364,-0.0746,0.5092,0.75,-29.75,13.75,198.7,-85.01,17.96,75205,2015-10-07 16:21:34:741,1
-2.375,10.9367,-0.4214,-0.2382,9.7931,0.4562,-1.8113,0.6839,-0.5711,0.4368,-0.1065,0.0213,-0.5,-29.5,12.5,204.79,-86.99,27.57,75304,2015-10-07 16:21:34:840,1
-0.7661,9.845,0.2873,-0.3026,9.8003,0.1834,-0.4636,0.0447,0.1039,0.1001,0.0511,0.0639,-1,-29.5,13,230.83,-87.93,58.78,75404,2015-10-07 16:21:34:940,1
-0.0192,9.2129,0.1149,-0.3822,9.7989,0.0776,0.3631,-0.586,0.0374,0.147,-0.0213,-0.098,-1,-30.25,13.25,238.12,-87.83,66.75,75504,2015-10-07 16:21:35:040,1
-0.2298,8.8298,0.3065,-0.4383,9.7966,0.0659,0.2084,-0.9668,0.2405,0.1065,0.1768,-0.0128,-0.75,-29.5,13.75,252.48,-87.61,81.44,75604,2015-10-07 16:21:35:140,1
0.1724,9.232,0.2873,-0.4113,9.798,0.0323,0.5837,-0.5659,0.255,-0.049,0.1811,0.1662,-0.75,-29.5,14,256.58,-87.59,85.51,75704,2015-10-07 16:21:35:240,1
0.0575,9.3087,0.1341,-0.3861,9.799,0.0087,0.4435,-0.4904,0.1254,0.1087,0.1364,-0.0256,0,-30.5,14.5,260.52,-87.66,85.48,75804,2015-10-07 16:21:35:340,1
0.0958,9.4044,-0.1532,-0.3539,9.8001,-0.0646,0.5013,-0.4157,0.0633,0.049,-0.0064,0.1726,-0.5,-29.5,14,276,-87.9,100.34,75917,2015-10-07 16:21:35:453,1
0.3448,9.3278,0.0575,-0.301,9.8015,-0.1054,0.6457,-0.4737,0.1629,-0.0234,-0.0085,0.0341,-0.75,-29.25,14.25,281.43,-88.14,109.3,76005,2015-10-07 16:21:35:541,1
0.3448,9.2703,-0.1149,-0.282,9.8022,-0.0912,0.6869,-0.4743,0.0488,0.0533,0.0469,-0.0639,-0.75,-28.25,14.75,278.11,-88.23,105.19,76105,2015-10-07 16:21:35:641,1
0.7278,9.4236,-0.2682,-0.2676,9.8028,-0.0648,1.2167,-0.4179,0.1157,-0.0916,-0.0064,-0.1108,-1.25,-30.25,14.75,276.61,-88.39,103.62,76204,2015-10-07 16:21:35:740,1
1.4365,9.098,0.0575,-0.2478,9.8033,0.0576,1.6417,-0.5145,0.141,-0.0405,0.0234,-0.2237,-0.5,-28.5,14.25,251.04,-88.69,77.33,76305,2015-10-07 16:21:35:841,1
0.9002,8.9064,-0.1149,-0.3391,9.7997,0.1448,1.1389,-0.9302,-0.1774,-0.277,-0.0746,-0.2599,-0.5,-29.75,13.75,245.38,-88.38,72.39,76405,2015-10-07 16:21:35:941,1
0.6512,8.8107,0.3448,-0.3531,9.7924,0.3927,0.7829,-1.0198,-0.0098,-0.081,-0.3302,-0.0426,0,-30,13.25,217.08,-87.07,41.13,76505,2015-10-07 16:21:36:041,1
-0.1532,8.6574,1.5323,-0.2497,9.7826,0.6396,0.3632,-1.1619,0.5435,-0.1854,-0.4708,-0.0533,0.5,-31.25,12.75,202.17,-85.99,21.32,76605,2015-10-07 16:21:36:141,1
-1.0343,9.1554,1.1109,0.0644,9.7787,0.7374,-0.9748,-0.6745,0.3126,0.2365,-0.637,0.2131,1,-32,11.25,184.65,-85.03,0.61,76705,2015-10-07 16:21:36:241,1
