ACCELEROMETER X (m/s²),ACCELEROMETER Y (m/s²),ACCELEROMETER Z (m/s²),GRAVITY X (m/s²),GRAVITY Y (m/s²),GRAVITY Z (m/s²),LINEAR ACCELERATION X (m/s²),LINEAR ACCELERATION Y (m/s²),LINEAR ACCELERATION Z (m/s²),GYROSCOPE X (rad/s),GYROSCOPE Y (rad/s),GYROSCOPE Z (rad/s),MAGNETIC FIELD X (μT),MAGNETIC FIELD Y (μT),MAGNETIC FIELD Z (μT),ORIENTATION Z (azimuth °),ORIENTATION X (pitch °),ORIENTATION Y (roll °),Time since start in ms ,YYYY-MO-DD HH-MI-SS_SSS,state
0.9194,8.734,2.6432,0.7872,9.4377,2.5457,0.2131,-0.6427,0.1337,0.1001,0.0959,-0.1555,-5.25,-41.5,9.5,157.77,-74.23,-17.18,26,2015-10-08 14:00:50:805,1
1.0151,8.6766,2.375,0.7023,9.4485,2.5304,0.359,-0.6981,-0.2813,-0.1427,0.0639,-0.0234,-4.75,-42,10.25,155.37,-74.44,-16.16,126,2015-10-08 14:00:50:905,1
1.3408,8.8298,3.0263,0.7517,9.4145,2.6405,0.5817,-0.601,0.3341,0.0746,0.1513,-0.1342,-4,-41.25,10.5,161.5,-74.08,-15.67,226,2015-10-08 14:00:51:005,1
0.6895,8.9447,2.3367,0.6717,9.4119,2.6712,0.0395,-0.4699,-0.33,-0.0107,0.0682,-0.0447,-4,-40.5,10.75,164.56,-73.77,-15.2,326,2015-10-08 14:00:51:105,1
0.5555,8.9256,2.49,0.6233,9.4325,2.6094,-0.0641,-0.4992,-0.1483,0.0426,-0.1214,0.0341,-5,-40.25,10,159.46,-74.12,-13.43,426,2015-10-08 14:00:51:205,1
1.2258,9.0022,2.5474,0.6172,9.4404,2.5822,0.4892,-0.4141,-0.0135,0.0128,0.0788,0.0192,-4.75,-40,10,159.46,-74.12,-13.43,526,2015-10-08 14:00:51:305,1
1.0726,8.9064,2.0303,0.5437,9.4616,2.5207,0.6526,-0.4495,-0.4439,0.1385,-0.0277,-0.2237,-4.75,-42.5,10.25,160.22,-74.75,-12.17,625,2015-10-08 14:00:51:404,1
1.743,8.7915,2.5283,0.5088,9.4774,2.4678,1.1106,-0.7416,-0.1552,-0.0021,-0.0021,-0.1449,-3.75,-41.5,10.25,162.83,-75.11,-11.65,725,2015-10-08 14:00:51:504,1
1.1492,8.5617,1.4365,0.4287,9.5236,2.2996,0.7205,-0.9619,-0.8631,0.228,-0.1001,-0.2429,-3.5,-41.25,10,162.83,-75.11,-11.65,825,2015-10-08 14:00:51:604,1
0.9002,8.4084,1.6472,0.3886,9.5524,2.1845,0.4701,-1.2062,-0.6148,0.1555,-0.3792,-0.3153,-2.75,-42.25,11.25,163,-76.2,-10.56,925,2015-10-08 14:00:51:704,1
-0.0766,8.5617,1.6855,0.4672,9.5672,2.1026,-0.2899,-0.9283,-0.5015,-0.0959,-0.7798,0.0597,-2.25,-41.5,11.5,168.11,-76.92,-11.18,1025,2015-10-08 14:00:51:804,1
-0.4214,8.9447,2.8156,0.7867,9.5369,2.1448,-0.9891,-0.6022,0.5844,-0.0021,-0.8075,0.4389,-1.75,-43.5,11,166.78,-77.24,-13.82,1125,2015-10-08 14:00:51:904,1
-0.3448,10.5919,3.237,1.2741,9.4726,2.1946,-1.6188,1.1193,1.0424,-0.1236,-0.4922,0.6924,-1.75,-43.25,11.25,162.21,-76.18,-23.35,1225,2015-10-08 14:00:52:004,1
-1.7813,11.0133,3.3136,1.3705,9.4448,2.2555,-3.1518,1.5685,1.0581,0.3345,0.5092,0.1875,-2.75,-42.5,12,155.85,-74.3,-31.52,1325,2015-10-08 14:00:52:104,1
-1.0534,11.9327,2.8539,0.478,9.6091,1.8991,-1.5315,2.3236,0.9548,1.1739,1.5382,-0.7968,-4.75,-41.5,12.25,151.85,-75.48,-26.83,1425,2015-10-08 14:00:52:204,1
-1.5131,10.0748,2.1261,-0.9342,9.7113,0.9941,-0.3131,0.3522,1.3844,1.0695,1.5446,-1.3934,-5.75,-40.75,12.75,176.59,-82.12,20.05,1525,2015-10-08 14:00:52:304,1
-2.3367,8.8107,1.2258,-2.2785,9.5381,0.0613,1.4787,-0.7892,0.4519,0.931,0.6775,-1.142,-5.5,-39.25,14.25,219.49,-79.15,77.08,1625,2015-10-08 14:00:52:404,1
0.0766,9.232,0.1915,-2.6012,9.4527,-0.2249,2.7076,-0.2046,0.6372,0.8842,0.6349,-0.1555,-2.25,-40.75,17.75,235.64,-74.74,91.27,1725,2015-10-08 14:00:52:504,1
0.4214,8.2552,-2.6815,-2.5405,9.3989,-1.173,2.9937,-1.1389,-1.5398,0.3537,-0.1257,0.3345,1,-40.5,20,254.84,-73.25,106.68,1825,2015-10-08 14:00:52:604,1
1.8771,7.4316,-2.2601,-2.0606,9.5026,-1.2749,3.6887,-1.9752,-0.1425,-0.3771,-0.7265,0.7457,2.25,-38.75,23,268.36,-73.42,114.78,1925,2015-10-08 14:00:52:704,1
2.3367,6.4739,-1.9345,-0.8255,9.6156,-1.7407,5.0968,-2.1456,-1.4388,0.9779,-1.2634,1.6789,3,-37.75,26,305.49,-78.4,133.41,2025,2015-10-08 14:00:52:804,1
2.0877,8.2169,1.0343,0.6357,9.6914,-1.3573,2.199,-1.034,1.4339,-1.2677,0.3707,0.7649,1.75,-38.5,26.75,18.82,-79.3,-170.56,2125,2015-10-08 14:00:52:904,1
1.3982,8.1786,-2.0494,1.1486,9.6761,-1.1066,0.9583,-1.5166,-0.7513,0.0639,0.147,0.2493,-1,-36.25,27.75,53.45,-81.57,-133.57,2225,2015-10-08 14:00:53:004,1
2.1452,8.5617,-1.6664,1.4862,9.641,-1.0064,0.659,-1.0793,-0.6599,-0.017,0.1023,0.3196,-3.25,-38.75,25.75,56.05,-80.26,-129.94,2325,2015-10-08 14:00:53:104,1
2.7581,8.6383,-1.245,1.6409,9.6289,-0.8728,1.0789,-1.0672,-0.2955,-0.2663,0.1129,-0.1044,-4.5,-38.25,25.75,63.43,-78.94,-122.82,2425,2015-10-08 14:00:53:204,1
2.7198,8.5425,-0.8045,1.6012,9.6546,-0.6294,1.2144,-0.978,-0.1176,-0.2493,0.2365,-0.2237,-5.75,-37.75,25.25,66.12,-79.07,-118.01,2526,2015-10-08 14:00:53:305,1
2.624,8.9639,0.9768,1.4812,9.6938,-0.084,1.9914,-0.983,1.3565,-0.4708,0.6349,-0.4815,-6,-37.75,24.5,78.96,-80.74,-101.35,2626,2015-10-08 14:00:53:405,1
3.237,8.6766,0.2298,1.1194,9.7417,0.1251,0.8329,-1.0354,-0.1682,0.3366,0.4495,-0.7457,-5.75,-40.25,22.5,96.32,-82.55,-81.63,2726,2015-10-08 14:00:53:505,1
1.1109,8.849,0.498,0.4944,9.792,0.2061,0.9242,-0.7856,0.3446,0.0298,0.1449,-0.8352,-6,-40,20.75,95.84,-85.06,-77.25,2826,2015-10-08 14:00:53:605,1
-1.8771,8.5234,1.3408,-0.0445,9.7937,0.5017,-1.8326,-1.2704,0.8391,-0.6477,0.5582,-0.2365,-4.25,-40.75,21,108.24,-88.39,-63.9,2926,2015-10-08 14:00:53:705,1
-3.5434,9.6343,0.5363,-0.4661,9.7736,0.6563,-3.0774,-0.1393,-0.12,0.0021,0.0682,0.0746,-2.25,-41,20.5,202.16,-85.88,30.57,3026,2015-10-08 14:00:53:805,1
-3.4093,10.1131,-0.3256,-0.6623,9.7702,0.5236,-2.7471,0.3429,-0.8492,-0.1065,-0.424,0.0959,-2,-42.25,19,219.17,-85.65,51.15,3126,2015-10-08 14:00:53:905,1
-2.7773,9.9216,0.9385,-0.8331,9.7466,0.6933,-1.9442,0.175,0.2452,-0.1364,-0.3217,-0.017,-2.5,-40.75,19.25,222.07,-84.24,56.25,3226,2015-10-08 14:00:54:005,1
-1.7621,10.1897,0.6321,-0.9928,9.7323,0.6839,-0.7694,0.4574,-0.0518,0.1491,0.1385,0.032,-1.75,-41.5,18.75,218.7,-82.98,53.96,3326,2015-10-08 14:00:54:105,1
-0.2682,9.0214,0.6321,-1.04,9.7347,0.569,0.7336,-0.6942,0.1206,0.147,0.0043,-0.1917,-0.25,-41.5,17.75,221.5,-82.94,55.44,3425,2015-10-08 14:00:54:204,1
-0.498,8.9064,0.3639,-1.0333,9.7365,0.5512,0.5353,-0.83,-0.1873,-0.0746,0.0767,-0.0618,0.5,-41.5,18.25,233.1,-83.14,62.33,3525,2015-10-08 14:00:54:304,1
-0.4788,9.0214,0.8236,-0.9484,9.7388,0.6532,0.4312,-0.6408,0.2279,0.049,-0.0043,0.0341,0.5,-41.25,18.5,231.33,-83.08,59.87,3625,2015-10-08 14:00:54:404,1
-0.2298,9.5002,0.4405,-0.7762,9.7588,0.5777,0.6421,-0.182,-0.2138,0.1427,-0.0128,0.2344,0,-41.75,19,224.53,-83.26,55.44,3726,2015-10-08 14:00:54:505,1
0.1724,9.4044,0.1915,-0.7204,9.7686,0.4757,0.8708,-0.2101,-0.2657,-0.0256,-0.1087,-0.0256,0,-42.25,18.5,226.56,-84.85,54.75,3826,2015-10-08 14:00:54:605,1
0.4405,8.5042,0.4022,-0.6994,9.766,0.5542,1.1208,-1.2043,-0.2286,-0.1981,-0.1193,0.0618,-1,-42.25,18.75,225.4,-84.96,56.26,3926,2015-10-08 14:00:54:705,1
1.0151,8.5425,0.5938,-0.4467,9.7708,0.7094,1.4044,-1.1708,0.2866,-0.2301,-0.2642,0.3025,-0.25,-43,18.25,218.03,-84.66,45.8,4025,2015-10-08 14:00:54:804,1
0.7278,8.6,0.9768,-0.0121,9.7776,0.7539,0.5293,-1.216,0.1654,-0.2131,-0.3025,0.4091,-0.25,-42.75,18.25,194.34,-85.74,16.82,4125,2015-10-08 14:00:54:904,1
0.3448,8.734,0.6512,0.3651,9.7748,0.7,0.0754,-1.0408,-0.2977,-0.1321,-0.7095,0.6264,-0.75,-42.25,18.25,180.78,-85.59,0.92,4225,2015-10-08 14:00:55:004,1
0.2873,10.0365,0.747,1.1015,9.7137,0.7754,-0.6226,0.2845,0.1056,-0.0511,-0.9843,0.7713,-2,-41.25,18,137.46,-83.44,-46.12,4325,2015-10-08 14:00:55:104,1
-0.8619,10.726,2.49,1.848,9.5447,1.2864,-2.7099,1.1814,1.2036,-0.4922,-0.6157,0.7031,-3.75,-41.75,17.75,127.88,-79.46,-58.53,4425,2015-10-08 14:00:55:204,1
-1.4174,12.4115,3.0263,1.6615,9.5606,1.4159,-2.9065,2.9084,1.687,0.2684,0.4794,-0.1023,-5.25,-41.75,16.75,131.94,-76.73,-55.16,4525,2015-10-08 14:00:55:304,1
-0.7278,11.4156,2.4134,0.8016,9.7099,1.1162,-1.8742,1.4567,1.3163,0.7989,1.159,-0.9545,-7,-42.25,16.5,132.91,-77.14,-49.56,4625,2015-10-08 14:00:55:404,1
-1.7621,9.7683,1.4365,-0.4376,9.7814,0.5511,-1.2288,0.0061,1.0386,0.5625,1.0376,-1.0717,-6.25,-41,17.75,169.4,-85.84,6.21,4725,2015-10-08 14:00:55:504,1
-2.1644,9.6726,0.7853,-1.5082,9.688,-0.1942,-0.6562,-0.0155,0.9795,0.2514,0.7052,-0.8139,-4.5,-41.25,19.25,246.78,-82.75,92.79,4825,2015-10-08 14:00:55:604,1
-1.2833,9.0022,2.375,-1.8251,9.6329,-0.2142,0.8483,-0.8606,2.7042,0.0298,0.2557,0.3558,-1.25,-39.5,22.5,260.13,-78.74,101.83,4925,2015-10-08 14:00:55:704,1
1.3791,7.3358,0.4214,-1.4339,9.6955,-0.3352,2.8129,-2.3596,0.7565,0.5965,0.0575,0.7201,0,-41,22,261.52,-80.57,99.24,5025,2015-10-08 14:00:55:804,1
6.0525,6.5122,-0.3065,-0.1899,9.788,-0.5732,6.2424,-3.2758,0.2667,0.4623,-0.7073,0.6157,-1,-40.75,22.5,297.13,-84.95,127.75,5125,2015-10-08 14:00:55:904,1
3.9648,7.5465,-0.6321,0.6024,9.7592,-0.7519,3.5922,-2.3276,0.1581,0.0341,-0.4048,0.9374,-2.25,-39.25,24.25,336.88,-86.47,161.67,5226,2015-10-08 14:00:56:005,1
3.8307,9.1171,-1.2067,1.5617,9.6407,-0.8882,2.2058,-0.5146,-0.3346,-0.0021,-0.5262,0.5497,-5.25,-39.25,25.25,49.12,-82.84,-130.18,5325,2015-10-08 14:00:56:104,1
2.5857,8.9639,-1.3216,1.9563,9.5835,-0.7075,0.6294,-0.6196,-0.6141,-0.2344,-0.0256,-0.0362,-7.25,-38.5,25.75,72.04,-77.9,-109.96,5426,2015-10-08 14:00:56:205,1
2.6815,8.9447,-0.8619,2.0493,9.571,-0.605,0.4407,-0.7795,-0.3335,-0.098,-0.0383,-0.0149,-7.25,-38.75,25.25,70.44,-77.75,-109.88,5525,2015-10-08 14:00:56:304,1
3.0071,8.734,-0.7278,2.24,9.5288,-0.5958,1.0411,-0.7916,-0.4581,-0.2024,0.0213,-0.0469,-8,-39.75,24.25,77.28,-77.42,-106.45,5626,2015-10-08 14:00:56:405,1
1.9154,7.0294,0.4022,2.3437,9.517,-0.3237,-0.31,-2.6597,1.0436,0.6711,-0.1406,0.1364,-8.75,-38,24,80.23,-76.15,-103.59,5726,2015-10-08 14:00:56:505,1
3.5817,8.8107,-0.3639,2.6273,9.4316,-0.5593,0.9586,-0.5843,0.4485,-0.1854,0.081,0.1662,-8.75,-39,23.75,83.16,-74.1,-102.02,5826,2015-10-08 14:00:56:605,1
3.7541,9.2895,0.1149,2.6433,9.4411,-0.2204,2.5037,-0.623,1.2805,-0.7286,0.6093,-0.4069,-9.25,-38.25,24,85.59,-73.49,-100.03,5926,2015-10-08 14:00:56:705,1
4.4053,8.3127,1.9345,1.9875,9.5963,0.3618,1.4593,-1.3527,1.7622,-0.2088,0.2791,-0.7201,-9.5,-39,21.75,95.44,-77.34,-83.71,6026,2015-10-08 14:00:56:805,1
2.2601,8.734,0.4022,1.2747,9.7137,0.4345,0.9854,-0.9797,-0.0323,-0.6498,0.5049,-0.8565,-8,-39.75,21,94.8,-81.1,-80.41,6126,2015-10-08 14:00:56:905,1
-1.6089,9.4619,0.4022,0.2228,9.7785,0.7077,-1.2954,-0.6423,-0.1714,0.1662,-0.13,-0.6562,-4.75,-40,19.5,139,-84.99,-33.25,6226,2015-10-08 14:00:57:005,1
-4.4436,8.9639,0.7087,-0.5284,9.7619,0.7727,-4.2408,-0.9129,-0.6195,0.7478,-0.4261,-0.4155,-0.5,-41,18.75,194.24,-84.46,17.11,6326,2015-10-08 14:00:57:105,1
-4.8076,9.9407,0.0192,-1.0502,9.7371,0.5065,-3.7574,0.2036,-0.4874,0.3515,-0.4261,0.1108,2,-42.5,19,233.96,-83.28,59.82,6426,2015-10-08 14:00:57:205,1
-2.1452,10.1323,0.8619,-1.0397,9.7378,0.5142,-1.0761,0.5088,0.1885,-0.277,-0.2024,0.196,3.75,-39.5,19.75,240.86,-83.17,64.25,6526,2015-10-08 14:00:57:305,1
-1.2641,9.3853,0.3448,-0.9733,9.7417,0.5673,-0.0035,-0.4139,0.1031,-0.1598,-0.0362,0.1023,2.75,-40.25,19.5,240.57,-83.21,63.68,6626,2015-10-08 14:00:57:405,1
-0.9194,9.347,1.0151,-0.9426,9.7445,0.5707,0.0279,-0.3967,0.4372,-0.0724,0.0703,0.0831,2,-41.5,19.75,234.75,-83.56,59.69,6726,2015-10-08 14:00:57:505,1
-0.7278,9.2703,1.0534,-0.9274,9.739,0.6801,0.1024,-0.4881,0.1084,0.049,0.115,0.098,2.25,-41.75,19.25,230.26,-83.31,55.45,6825,2015-10-08 14:00:57:604,1
-0.2298,9.232,0.4214,-0.9117,9.7435,0.6347,0.701,-0.6264,-0.2899,-0.0575,0.2173,-0.0085,2.75,-40.25,19.25,229.41,-83.27,54.27,6926,2015-10-08 14:00:57:705,1
0.498,8.7724,-0.1149,-0.7869,9.7614,0.5168,1.2485,-0.9652,-0.6952,-0.0341,-0.1044,-0.0256,2.5,-40,19,234.79,-84.04,55.87,7025,2015-10-08 14:00:57:804,1
1.3599,8.8681,0.7087,-0.5541,9.7756,0.5481,1.9771,-0.9035,0.1566,0.0554,-0.0085,0.1704,2.75,-41.5,19,232,-84.72,54.86,7128,2015-10-08 14:00:57:907,1
-0.0383,8.0254,0.9002,-0.1976,9.7865,0.5962,0.1593,-1.7612,0.304,-0.196,-0.3899,0.3068,1.25,-41.25,18.5,222.73,-85.71,42.9,7225,2015-10-08 14:00:58:004,1
0.498,8.8298,1.3408,0.3131,9.7636,0.8629,0.1849,-0.9338,0.4778,-0.0256,-0.588,0.5944,1,-41.5,18.5,175.24,-85.12,-8.62,7325,2015-10-08 14:00:58:104,1
0.6704,9.9216,0.6704,0.9002,9.7225,0.9126,-0.2298,0.1991,-0.2422,-0.1427,-0.5497,0.6754,0.75,-41.5,18.5,158.27,-84.08,-29.36,7425,2015-10-08 14:00:58:204,1
-0.1532,10.7069,1.0918,1.4111,9.6586,0.9439,-1.5644,1.0483,0.1479,-0.1342,-0.4772,0.6882,-0.25,-41,17.25,140.61,-80.89,-53.13,7525,2015-10-08 14:00:58:304,1
-1.743,11.2432,1.5131,1.6851,9.6145,0.9447,-3.4281,1.6287,0.5684,0.0788,0.1236,0.3025,-2.25,-40.25,17.25,132.63,-78.68,-60.05,7626,2015-10-08 14:00:58:405,1
-1.6089,11.473,2.7581,1.27,9.6632,1.0866,-2.8789,1.8099,1.6715,0.1065,0.8884,-0.3878,-5.5,-39.25,17.25,127.02,-79.62,-54.8,7726,2015-10-08 14:00:58:505,1
-0.4405,10.3046,1.494,0.4057,9.7604,0.861,-0.8462,0.5443,0.633,0.5859,1.3103,-1.2016,-5.5,-39.5,17.25,132.09,-81.09,-42.61,7826,2015-10-08 14:00:58:605,1
-2.1835,8.734,-0.0575,-1.2291,9.7217,0.3846,-0.9544,-0.9877,-0.442,0.392,1.4701,-0.9609,-5.75,-38.75,17.25,174.83,-85.93,13.49,7925,2015-10-08 14:00:58:704,1
-2.1644,9.6151,0.5555,-1.8516,9.6275,0.2292,-0.3128,-0.0124,0.3263,0.3473,0.62,-0.539,-3,-39,18.5,233.57,-80.09,78.59,8025,2015-10-08 14:00:58:804,1
-0.4214,8.9447,0.2107,-1.9443,9.6118,-0.0546,1.5229,-0.6671,0.2653,-0.2599,-0.0107,0.2216,-1.25,-40.25,18.5,243.8,-78.13,89.58,8126,2015-10-08 14:00:58:905,1
2.1835,7.5274,-2.375,-1.4807,9.6702,-0.6821,3.6642,-2.1428,-1.6929,1.4061,-1.191,0.6647,0,-41.25,19.75,243.42,-79.45,89.37,8226,2015-10-08 14:00:59:005,1
6.1483,7.106,-0.4214,-0.0705,9.7431,-1.1121,6.2188,-2.6371,0.6908,0.5987,-1.0397,1.5233,1,-41.25,22,322.81,-83.32,147.93,8326,2015-10-08 14:00:59:105,1
3.0646,8.4467,0.7087,1.0229,9.7126,-0.8882,1.9298,-1.1732,1.3586,-1.387,0.3814,0.5284,-0.5,-38.25,24.75,38.24,-80.85,-150.76,8426,2015-10-08 14:00:59:205,1
2.0303,8.3318,-1.0343,1.2965,9.7036,-0.5745,0.5262,-1.2152,-0.5561,0.1193,0.0895,-0.0085,-2.5,-38.5,26,73.65,-81.69,-113.9,8526,2015-10-08 14:00:59:305,1
1.6281,8.4659,-1.3982,1.4582,9.6776,-0.6223,0.1952,-1.19,-0.67,-0.0618,-0.1193,0.2365,-3.75,-40,24.75,72.28,-80.7,-113.11,8626,2015-10-08 14:00:59:405,1
2.6432,8.7149,-0.4597,1.7529,9.6387,-0.4395,0.9741,-0.6622,0.2823,-0.3132,0.2237,-0.081,-4.75,-39,24.25,74.29,-80.25,-112.23,8726,2015-10-08 14:00:59:505,1
2.4517,8.9447,-0.4022,1.8834,9.6197,-0.2897,0.5683,-0.675,-0.1125,-0.2812,0.0107,0.081,-5.5,-38.75,23.25,87.22,-78.89,-99.53,8826,2015-10-08 14:00:59:605,1
3.6009,9.0022,0.1915,1.8444,9.6303,0.1598,1.6607,-0.609,0.1658,-0.4538,0.4602,-0.4858,-5.5,-39,22.75,87.87,-78.61,-96.84,8926,2015-10-08 14:00:59:705,1
2.2601,8.5617,1.6664,1.5061,9.6753,0.5397,0.63,-1.2899,1.2343,0.3302,0.1001,-0.5135,-5.75,-38.75,21.5,109.38,-79.88,-71.79,9026,2015-10-08 14:00:59:805,1
1.3982,9.3087,-0.4405,1.0942,9.7185,0.7241,-0.2514,-0.8121,0.6742,-0.098,0.6029,-0.3132,-5.75,-40.75,19.5,119.84,-82.31,-56.51,9126,2015-10-08 14:00:59:905,1
-0.3065,9.2512,0.4214,0.7705,9.729,0.9613,-0.9739,-0.483,-0.5635,-0.228,0.2024,-0.4346,-4.5,-41,18.25,120.46,-82.88,-57.25,9226,2015-10-08 14:01:00:005,1
-0.249,8.7724,1.3216,0.3203,9.7302,1.1794,-0.531,-0.9636,0.1805,0.3728,0.1172,-0.3047,-4.5,-41.25,17.25,157.77,-82.84,-15.19,9325,2015-10-08 14:01:00:104,1
-1.5706,8.6957,0.7087,0.0088,9.7651,0.902,-1.5794,-1.0693,-0.1933,0.0639,-0.1257,0.0831,-3.25,-41.5,16.5,171.51,-84.57,-0.34,9425,2015-10-08 14:01:00:204,1
-1.9537,10.0556,-0.3831,-0.0683,9.7723,0.817,-2.2876,0.5706,-0.9894,-0.0874,-0.0703,0.1406,-1.25,-40.25,18,181.45,-85.17,4.9,9525,2015-10-08 14:01:00:304,1
-1.245,11.0516,0.5746,-0.2072,9.754,0.9932,-0.9804,1.2593,-0.476,0.0085,-0.5071,-0.1981,-0.5,-42.5,17.5,187.84,-84.23,9.63,9625,2015-10-08 14:01:00:404,1
-1.6281,9.3278,1.1109,-0.3736,9.7164,1.2736,-1.3502,-0.3311,0.3353,0.2173,-0.147,-0.0469,-1,-42.5,17.5,190.09,-82.22,16.35,9725,2015-10-08 14:01:00:504,1
-0.7087,9.1554,1.4365,-0.457,9.716,1.249,0.0547,-0.4265,0.3599,-0.2194,0.0724,0.2514,-1,-42.75,16.25,193.81,-82.41,22.12,9825,2015-10-08 14:01:00:604,1
-0.1915,9.3087,1.3408,-0.4505,9.7124,1.279,0.2781,-0.3655,0.1192,0.0213,0.049,-0.1001,0,-40.5,16.5,194.78,-82.05,19.4,9925,2015-10-08 14:01:00:704,1
-0.1915,9.0214,1.1875,-0.4751,9.7185,1.2231,0.2836,-0.6971,-0.0356,-0.0618,0.0597,-0.0852,0.25,-40.5,16.25,195.95,-82.32,21.08,10026,2015-10-08 14:01:00:805,1
0.4788,9.1171,0.9385,-0.415,9.7312,1.1413,0.8938,-0.614,-0.2028,-0.0021,0.0213,-0.0107,0,-41,15.75,196.35,-82.75,21.46,10126,2015-10-08 14:01:00:905,1
1.3791,9.1363,1.0918,-0.2947,9.7397,1.1057,1.6738,-0.6034,-0.0139,0.0447,-0.0149,-0.1619,-0.25,-41.5,16.5,192.22,-83.31,15.54,10226,2015-10-08 14:01:01:005,1
1.4365,8.9639,0.5555,-0.2415,9.7507,1.018,1.678,-0.7868,-0.4625,0.1875,-0.0213,-0.0959,0,-40.75,17,189.81,-83.41,12.45,10326,2015-10-08 14:01:01:105,1
1.2641,8.0828,0.3065,-0.0523,9.7639,0.9133,1.3165,-1.6811,-0.6068,0.0277,-0.3984,0.3728,0,-40.25,16.75,191.51,-84.23,14.16,10426,2015-10-08 14:01:01:205,1
0.2873,8.6574,0.1149,0.4011,9.7742,0.6883,-0.3437,-0.9061,-0.6117,0.7009,-1.0077,0.2003,0.25,-41.75,17,175.09,-84.65,-5.97,10526,2015-10-08 14:01:01:305,1
-1.7621,10.7069,1.3791,0.8559,9.7614,0.3919,-2.6103,0.8376,0.7011,-0.1981,-1.0866,0.8543,-1.25,-40.25,17.5,138.42,-86.02,-47.9,10626,2015-10-08 14:01:01:405,1
-3.2178,12.3541,2.0303,1.222,9.7159,0.5267,-4.4161,2.6379,1.4554,-0.1172,-0.6541,0.6093,-1,-39.25,19.25,122.23,-82.57,-67.58,10725,2015-10-08 14:01:01:504,1
-3.3902,12.6031,2.7007,0.6886,9.7522,0.7689,-3.6939,2.5879,1.8148,0.2898,1.1356,-0.4155,-2.75,-40,19,137.54,-83.96,-41.84,10825,2015-10-08 14:01:01:604,1
-2.8539,10.1706,1.1875,-0.579,9.7679,0.6513,-2.2084,0.239,0.5115,0.1747,2.4096,-1.0163,-3.5,-39.75,19.25,207.81,-84.9,41.64,10925,2015-10-08 14:01:01:704,1
-3.4285,9.4427,0.996,-2.0394,9.5918,-0.0893,-1.753,-0.264,0.9895,1.0951,0.4069,-1.4424,-2.75,-40,19,238.15,-80.61,83.7,11025,2015-10-08 14:01:01:804,1
-0.5171,10.1897,1.2641,-2.4653,9.4887,-0.2374,2.3313,0.4903,1.7697,-0.4581,0.0682,0.2514,-3.25,-42.5,19.25,238.57,-75.37,95.5,11125,2015-10-08 14:01:01:904,1
1.3982,7.5848,1.0151,-2.1014,9.5788,0.0251,4.3041,-2.3388,0.856,0.2258,-0.6328,0.228,-0.5,-40,20,246.24,-77.63,89.32,11226,2015-10-08 14:01:02:005,1
4.3287,4.5586,1.9154,-0.8971,9.7639,0.1806,5.2258,-5.2053,1.7348,-0.3941,-0.6605,1.5255,0,-41.75,19.25,254.05,-78.87,96.54,11326,2015-10-08 14:01:02:105,1
5.0566,7.5657,-1.3791,0.399,9.7863,-0.4891,4.6576,-2.2206,-0.8899,0.1278,-0.882,1.0504,-3,-41.75,21,35.36,-86.31,-140.8,11425,2015-10-08 14:01:02:204,1
3.4093,8.2169,1.6664,1.3686,9.7106,-0.0427,2.0408,-1.4937,1.7091,-0.9822,0.5305,0.147,-3.75,-40,23.5,68.59,-82.42,-113.85,11525,2015-10-08 14:01:02:304,1
2.8156,8.9639,-2.4517,1.6885,9.651,-0.4208,1.0122,-0.7446,-1.8585,-0.1832,0.1832,0.1513,-7.25,-39.25,22.75,74.81,-80.25,-104.06,11626,2015-10-08 14:01:02:405,1
2.873,9.1171,-0.7853,1.9115,9.616,-0.2206,0.9807,-0.4989,-0.4881,-0.5028,0.0554,0.2024,-7.25,-39.75,23.75,78.53,-79.52,-102.25,11726,2015-10-08 14:01:02:505,1
3.2753,8.7532,0.8619,2.0487,9.5851,0.3154,1.2266,-0.8319,0.5465,-0.3558,0.1449,-0.0234,-9.25,-40.5,21.75,97.47,-77.8,-81.25,11826,2015-10-08 14:01:02:605,1
3.9265,6.7612,1.7621,2.0008,9.5501,0.9816,2.1556,-2.1759,0.225,-1.3763,1.0717,-0.3856,-10,-39.25,20.25,111.26,-76.86,-63.87,11926,2015-10-08 14:01:02:705,1
2.5474,8.1786,3.7733,1.3625,9.4602,2.1953,1.185,-1.2816,1.578,-0.3409,1.044,-0.686,-8.25,-40.25,14.25,135.23,-74.62,-42.47,12026,2015-10-08 14:01:02:805,1
1.5131,8.9447,2.5091,0.8929,9.5935,1.8269,0.6202,-0.6488,0.6823,0.5561,0.0533,-0.3089,-6.5,-42.25,13,142.51,-76.31,-32.24,12126,2015-10-08 14:01:02:905,1
0.747,9.2895,1.8962,0.6303,9.665,1.5365,0.5573,-0.184,0.1874,0.1641,0.0256,-0.2429,-5.25,-43,14,151.33,-80.25,-22.3,12226,2015-10-08 14:01:03:005,1
-1.8962,9.8258,1.8771,0.2342,9.719,1.2871,-1.8814,0.0685,0.3602,0.1896,-0.2834,-0.3004,-4,-42,15.25,161.26,-82.33,-10.31,12325,2015-10-08 14:01:03:104,1
-4.2904,9.0597,0.3256,-0.1978,9.7419,1.1076,-3.9586,-0.4141,-0.782,-0.4602,-0.1726,-0.066,-2,-42.25,17.25,172.09,-83.85,4.02,12425,2015-10-08 14:01:03:204,1
-2.7773,10.3621,0,-0.324,9.6965,1.4292,-2.4341,0.4166,-0.5098,-0.4922,-0.1172,-0.0575,-1.75,-41.75,16.5,184.48,-81.41,12.77,12525,2015-10-08 14:01:03:304,1
-1.2067,10.1706,1.1875,-0.352,9.7034,1.3748,-0.8547,0.4671,-0.1873,-0.3558,-0.2471,-0.0405,-1.75,-42.75,15.5,184.66,-81.35,13.6,12626,2015-10-08 14:01:03:405,1
-0.4597,9.5002,1.0726,-0.4228,9.7004,1.3764,-0.0369,-0.2002,-0.3038,-0.0575,0.0213,-0.0107,-1.75,-41.5,15.25,186.85,-81.42,16.62,12725,2015-10-08 14:01:03:504,1
-0.3256,8.8107,1.2258,-0.4645,9.7023,1.3488,0.1389,-0.8917,-0.123,-0.0724,-0.0085,-0.0703,-1.5,-42,14.75,188.13,-81.57,18.85,12825,2015-10-08 14:01:03:604,1
0.0192,9.0597,1.3408,-0.4578,9.6924,1.4206,0.4769,-0.6327,-0.0798,-0.0682,-0.0213,-0.0341,-2,-43.25,15.75,187.18,-81.32,17.76,12926,2015-10-08 14:01:03:705,1
-0.1149,9.1937,1.2258,-0.468,9.6876,1.4495,0.39,-0.4555,-0.2442,-0.0447,-0.0937,-0.0128,-2.25,-42.75,14.75,187.21,-81.06,17.89,13026,2015-10-08 14:01:03:805,1
1.0918,9.347,0.8236,-0.392,9.7062,1.3441,1.4263,-0.3592,-0.4822,0.2599,-0.1726,-0.2088,-2.5,-42.5,15.25,186.38,-81.31,16.64,13126,2015-10-08 14:01:03:905,1
1.7813,8.7149,1.9728,-0.3044,9.704,1.3819,2.0665,-0.8551,0.4377,-0.1321,-0.1917,-0.0618,-2,-43,15.75,185.75,-81.92,14.97,13225,2015-10-08 14:01:04:004,1
0.9385,8.3701,0.5363,-0.1685,9.736,1.1632,1.1262,-1.3467,-0.8759,0.3771,-0.4559,0.0341,-1.25,-43,15.5,185.06,-82.27,10.41,13326,2015-10-08 14:01:04:105,1
0,8.6383,0.4022,0.1144,9.7563,0.9854,-0.2485,-1.1564,-0.5065,-0.0575,-0.767,0.3047,-0.5,-42.5,16.5,183.57,-83.12,8.24,13425,2015-10-08 14:01:04:204,1
-0.1341,9.8067,1.1684,0.9204,9.6992,1.1178,-1.0545,0.1075,0.0506,0.4048,-0.8906,0.8458,0,-41.5,17.75,164.32,-82.68,-20.06,13525,2015-10-08 14:01:04:304,1
-2.3942,11.3389,2.4708,1.5293,9.6141,1.1837,-4.2316,1.8307,1.54,-0.473,-0.7585,1.0141,-1.25,-42,17.75,139.58,-80.44,-51.47,13625,2015-10-08 14:01:04:404,1
-3.8116,12.6414,4.0797,1.3416,9.5916,1.5399,-5.2175,2.9715,2.7136,0.2557,0.8053,0.2088,-4.25,-40.5,17.5,135.52,-78.63,-52.26,13725,2015-10-08 14:01:04:504,1
-1.4174,11.7412,2.1069,0.247,9.7199,1.2775,-1.8259,2.0344,0.772,0.7798,1.7257,-1.1526,-5.75,-40.25,15.75,145.67,-80.56,-25.97,13826,2015-10-08 14:01:04:605,1
-1.4748,11.1091,1.5897,-1.3372,9.6829,0.7894,-0.1376,1.4262,0.8004,0.9204,0.7329,-1.7385,-6,-40.25,16.5,192.65,-83.03,35.38,13926,2015-10-08 14:01:04:705,1
-0.1915,9.1937,1.5514,-2.4785,9.486,0.2081,2.2869,-0.2923,1.3433,0.0639,0.6796,-0.3132,-2.25,-41,17.75,231.78,-76.92,81.52,14026,2015-10-08 14:01:04:805,1
2.4708,8.9639,3.0263,-2.4369,9.4989,0.0496,5.8654,-1.282,1.3869,0.588,-0.8245,0.2045,1.75,-40.75,19,237.1,-75.31,85.2,14126,2015-10-08 14:01:04:905,1
3.4093,4.9608,0.7853,-1.5868,9.6774,0.0011,4.4024,-4.1229,0.1139,-0.8735,-0.0533,1.1207,1.25,-42,20.5,246.45,-76.73,89.84,14225,2015-10-08 14:01:05:004,1
3.6775,7.9487,-2.2793,0.2292,9.8004,-0.2658,3.4483,-1.8516,-2.0135,-0.5049,-0.4794,1.2314,0,-41.75,20.75,254.91,-80.69,89.96,14326,2015-10-08 14:01:05:105,1
2.3559,7.9871,0.7087,0.947,9.7332,0.7333,1.4375,-1.6177,0.1287,-0.2727,0.0192,0.1257,-3,-40,21.5,102.76,-86.24,-76.09,14426,2015-10-08 14:01:05:205,1
2.1835,9.0405,0.1724,1.2066,9.7155,0.5689,1.36,-0.5601,-1.0669,0.375,-0.1683,0.1044,-5.75,-42,19,119.49,-82.3,-57.08,14526,2015-10-08 14:01:05:305,1
2.375,8.8873,0.5938,1.357,9.699,0.5091,1.3819,-0.8117,-0.0111,0.2727,-0.0341,-0.1598,-7,-42.5,18.25,108.69,-81.66,-67.44,14626,2015-10-08 14:01:05:405,1
2.2793,8.1403,0.5363,1.3588,9.7,0.4834,0.9205,-1.5597,0.0529,0.1854,0.1683,-0.2152,-6.25,-42.25,19,104.94,-81.5,-72.09,14725,2015-10-08 14:01:05:504,1
2.739,8.4659,0.1532,1.3366,9.6996,0.5485,1.4023,-1.2337,-0.3953,-0.7201,0.2024,-0.1683,-6.25,-41,19.25,107.17,-81.76,-71.67,14825,2015-10-08 14:01:05:604,1
1.7621,8.6191,1.0151,1.2551,9.6978,0.7397,0.1698,-1.0772,1.0566,-0.3196,0.1726,-0.294,-5.5,-41.25,18.5,118.41,-81.31,-62.82,14925,2015-10-08 14:01:05:704,1
0.5363,8.4851,1.5514,1.0139,9.722,0.7903,-0.2406,-1.4859,1.4302,-0.2301,0.473,-0.3388,-6,-42.25,17.75,121.73,-81.91,-55.06,15025,2015-10-08 14:01:05:804,1
0.4597,8.3893,1.2067,0.7491,9.7398,0.8633,-0.0845,-1.5998,0.2776,-0.0234,0.294,-0.13,-4.75,-41.75,17.75,130.41,-82.48,-46.52,15125,2015-10-08 14:01:05:904,1
0.0192,8.5617,1.0918,0.52,9.7543,0.8679,-0.5009,-1.1926,0.2238,0.1108,-0.1385,-0.2961,-4.25,-42.25,18.5,139.61,-83.79,-37.08,15225,2015-10-08 14:01:06:004,1
-3.4285,8.7724,1.1492,0.1211,9.7345,1.1816,-3.5496,-0.9621,-0.0324,-0.6669,-0.017,-0.0767,-3.25,-42.5,18.25,159.09,-84.43,-15.93,15325,2015-10-08 14:01:06:104,1
-2.1069,11.7795,0.8428,-0.0739,9.6982,1.4523,-2.033,2.0812,-0.6095,-0.1023,-0.294,0.0383,-3.25,-43,17.75,175.45,-81.56,3.39,15425,2015-10-08 14:01:06:204,1
-0.4214,10.8984,0.5363,0.1117,9.6966,1.4608,-0.5331,1.2018,-0.9245,-0.4666,-0.032,0.0767,-4.25,-42.25,16,169.02,-81.56,-0.91,15525,2015-10-08 14:01:06:304,1
0.1724,9.5768,0.7661,0.1066,9.7058,1.3988,0.0658,-0.129,-0.6327,0.2557,0.0554,-0.1172,-4.25,-42.5,15.25,165.8,-80.7,-5.25,15626,2015-10-08 14:01:06:405,1
0.2107,9.1554,1.1492,0.1054,9.7159,1.3268,0.1053,-0.5222,-0.1201,0.0277,-0.0533,-0.0575,-4.25,-43.5,15,165.96,-81.78,-4.36,15725,2015-10-08 14:01:06:504,1
0.249,9.0214,1.4748,0.0574,9.7099,1.3727,0.3256,-0.6503,0.2362,-0.1214,0.0362,-0.098,-4.25,-43.25,16.25,166.24,-82.2,-4.54,15825,2015-10-08 14:01:06:604,1
0.747,9.1363,1.2258,0.0809,9.7126,1.3523,0.6278,-0.5572,0.0076,0.0895,-0.0192,-0.0256,-3.5,-42.25,16,170.4,-82.08,-2.28,15925,2015-10-08 14:01:06:704,1
0.9002,8.9639,0.8236,0.1049,9.7168,1.3206,0.7738,-0.7543,-0.4849,-0.0085,-0.0426,-0.0533,-4.5,-44,16.5,167.2,-82.17,-3.81,16025,2015-10-08 14:01:06:804,1
2.0111,9.0214,1.3216,0.1872,9.7128,1.3406,1.7971,-0.6885,-0.0362,-0.1534,-0.032,0.0298,-4.25,-43.25,16,165.3,-82.35,-5.6,16125,2015-10-08 14:01:06:904,1
2.2793,8.7724,1.1301,0.3626,9.6985,1.4061,1.9166,-0.9262,-0.276,0.0234,-0.0959,-0.0426,-5,-42,16.75,158.68,-81.55,-12,16226,2015-10-08 14:01:07:005,1
1.1109,7.7381,0.6129,0.4316,9.7042,1.3461,0.6793,-1.9662,-0.7332,0.0639,-0.4772,0.0639,-4,-43.5,16.25,159.32,-81.48,-14.46,16326,2015-10-08 14:01:07:105,1
1.0151,8.4851,0.8236,0.6947,9.695,1.3019,0.3204,-1.2099,-0.4783,0.2983,-0.8032,0.2748,-3,-42.75,16.25,151.86,-81.35,-28.09,16425,2015-10-08 14:01:07:204,1
-0.0958,9.0788,2.9305,1.7758,9.5364,1.4399,-1.8716,-0.4576,1.4906,-0.1917,-0.6434,1.078,-2.75,-42,16.25,140.89,-77.92,-47.96,16525,2015-10-08 14:01:07:304,1
0,11.3772,2.1644,2.3994,9.3778,1.572,-2.2078,1.4249,1.167,-0.0107,-0.5198,0.8543,-4,-43,17,138.09,-72.99,-56.77,16625,2015-10-08 14:01:07:404,1
-1.5514,13.3309,0.8811,2.2992,9.4166,1.4871,-3.6399,3.6845,0.1601,-0.4027,0.2684,-0.0426,-6.5,-41,17,129.85,-72.98,-61.08,16725,2015-10-08 14:01:07:504,1
-1.1109,12.2392,2.375,1.303,9.5982,1.5323,-2.4139,2.641,0.8427,0.7436,0.963,-1.5702,-9.5,-39.75,16.75,130.34,-78.16,-40.38,16825,2015-10-08 14:01:07:604,1
-1.494,10.6111,1.9345,-0.7063,9.7293,1.0062,-0.7877,0.8818,0.9283,0.4964,1.0482,-1.9643,-9.25,-41,16.5,185.69,-82.8,35.06,16925,2015-10-08 14:01:07:704,1
-2.5091,8.6191,1.4748,-2.9516,9.3481,0.2681,0.4424,-0.729,1.2067,1.2378,0.5944,-1.7683,-4,-39.75,18.75,223.76,-75.07,76.57,17025,2015-10-08 14:01:07:804,1
-5.0949,9.347,-0.6895,-3.7665,9.0541,-0.0804,-1.4433,-0.3009,0.4443,-0.6157,1.0589,0.7542,2.5,-41,20,232.65,-72.41,84.81,17126,2015-10-08 14:01:07:905,1
0.1532,6.2249,0.249,-3.3249,9.2222,-0.2569,3.0568,-1.8098,0.3526,1.5702,-0.2834,0.6051,8.75,-41.75,22.75,256.4,-69.56,92,17226,2015-10-08 14:01:08:005,1
2.0494,5.8227,-2.1261,-2.7643,9.3205,-1.2873,4.8137,-3.4978,-0.8387,0.1641,-0.6115,1.2868,8,-42.5,22.5,271.24,-70.77,109.12,17326,2015-10-08 14:01:08:105,1
2.0111,8.0445,-1.8962,-1.5032,9.538,-1.714,3.0164,-1.4552,-0.2972,1.0994,-0.6924,0.9673,8.75,-39.75,26.5,307.21,-75.96,125.68,17426,2015-10-08 14:01:08:205,1
1.1109,8.8873,-1.9345,-0.5559,9.6253,-1.7929,1.7927,-0.6886,-0.2422,-0.294,-0.081,0.3025,8,-39,29.5,338.52,-77.27,149.27,17526,2015-10-08 14:01:08:305,1
0.7853,9.098,-1.1875,-0.1072,9.7127,-1.3503,0.8925,-0.6147,0.1628,0.1214,0.1832,0.1278,5.5,-38,31,4.31,-80.99,172.49,17626,2015-10-08 14:01:08:405,1
0.7853,9.3278,-2.9688,0.0719,9.6928,-1.4885,0.8799,-0.5366,-1.2281,-0.0107,0.066,0.1278,2.75,-38.75,29.75,5.88,-81.97,177.47,17725,2015-10-08 14:01:08:504,1
1.1109,8.1211,-1.3599,0.3437,9.7307,-1.1683,1.0054,-1.2206,-0.1882,-0.3388,0.0895,0.098,0.25,-38,29,14.2,-82.41,-168.35,17826,2015-10-08 14:01:08:605,1
1.4557,8.1786,0.4788,0.5194,9.7525,-0.8888,0.2975,-1.9206,1.4026,0.2173,-0.1023,0.13,-0.75,-38.5,28.25,28.7,-83.91,-153.36,17926,2015-10-08 14:01:08:705,1
1.7047,8.7915,0,0.7029,9.7671,-0.5294,1.5645,-1.073,1.2361,-0.784,0.6775,-0.017,-0.5,-39,27,37.97,-83.55,-147.6,18026,2015-10-08 14:01:08:805,1
2.2984,8.5234,0.7853,0.7382,9.7788,0.0041,1.5359,-1.2536,0.7833,0.1364,0.5049,-0.1641,-1.5,-39.75,25.75,81.17,-85.5,-103.52,18126,2015-10-08 14:01:08:905,1
0.9577,8.3318,0.8428,0.7236,9.777,0.2407,-0.9665,-1.619,0.7049,-0.147,0.424,0.1278,-2.25,-40.75,23,98.08,-85.69,-84.55,18226,2015-10-08 14:01:09:005,1
-1.245,9.4044,0.3065,0.5341,9.7772,0.5393,-1.9615,-0.7016,-0.1876,-0.5049,-0.196,-0.0447,-2.75,-41,21.5,124.21,-85.81,-54.37,18326,2015-10-08 14:01:09:105,1
0.5938,10.6303,1.2258,0.4361,9.7468,0.9904,0.1577,0.8835,0.2354,-0.3174,-0.6051,-0.0639,-4,-42.5,20.25,144.06,-84.57,-31.08,18426,2015-10-08 14:01:09:205,1
-1.8771,9.7875,0.5363,0.2827,9.734,1.1575,-2.1597,0.0535,-0.6212,-0.5859,-0.245,0.1449,-2.25,-42.75,17.75,164.3,-83.02,-13.72,18525,2015-10-08 14:01:09:304,1
-2.3176,10.726,1.5706,0.0971,9.7082,1.3827,-2.4147,1.0178,0.1879,0.4091,-0.2791,-0.0618,-0.5,-44.5,16.75,177.04,-81.87,-4.02,18625,2015-10-08 14:01:09:404,1
-0.7661,9.4619,0.7853,-0.1469,9.7552,0.9925,-0.6192,-0.2933,-0.2072,0.3473,-0.0192,-0.1321,-2,-44.5,15.75,178.38,-83.57,5.02,18726,2015-10-08 14:01:09:505,1
0.0192,8.9447,1.4174,-0.2384,9.7572,0.954,0.2576,-0.8125,0.4633,-0.1044,0.0554,0.049,-1.25,-43.25,17,188.66,-84.46,14.09,18826,2015-10-08 14:01:09:605,1
-0.0958,8.9447,1.3599,-0.2311,9.7509,1.0179,0.1696,-0.8631,0.3739,-0.1236,0.1193,-0.0149,-0.5,-41.25,18.25,188.84,-84.24,14.03,18926,2015-10-08 14:01:09:705,1
0.1149,9.2895,0.9385,-0.2293,9.7516,1.012,0.3442,-0.4621,-0.0735,0.1342,0.1555,-0.0405,-0.75,-42.5,18.5,190.52,-83.69,13.14,19026,2015-10-08 14:01:09:805,1
0.3065,9.1554,0.5555,-0.2405,9.7588,0.9371,0.6236,-0.5651,-0.3241,-0.0447,-0.1065,-0.1491,-1.5,-42.75,18.75,188.71,-84.18,13.66,19125,2015-10-08 14:01:09:904,1
1.6089,8.983,0.498,-0.1743,9.7643,0.8939,1.7871,-0.7817,-0.3895,-0.049,-0.0682,-0.179,-2,-42.25,17.75,184.98,-84.5,12.41,19225,2015-10-08 14:01:10:004,1
1.7621,8.2361,0.6129,-0.1258,9.772,0.814,1.9166,-1.4012,-0.4563,0.0021,-0.1129,-0.1001,-0.75,-44,18,186.71,-84.77,11.32,19326,2015-10-08 14:01:10:105,1
1.8579,8.1786,0.2298,0.1235,9.7822,0.6816,1.0066,-1.7376,-0.6816,0.2109,-0.4069,0.0107,-1,-43,17.75,182.98,-85.23,6.74,19426,2015-10-08 14:01:10:205,1
-0.3256,8.0637,1.245,0.6443,9.7539,0.7852,-0.9699,-1.6902,0.4597,0.0405,-0.228,0.7137,0,-42.25,18.5,168.47,-85.95,-10.27,19526,2015-10-08 14:01:10:305,1
-0.1532,11.3006,0.5938,1.2358,9.7104,0.5932,-1.5231,0.3453,0.1346,0.3515,-0.6306,1.0461,-0.25,-40.5,19,147.42,-84.05,-39.37,19625,2015-10-08 14:01:10:404,1
-0.747,11.6071,1.5323,2.1426,9.5547,0.5363,-3.1578,1.4969,1.4557,-0.3132,-0.0362,0.8203,-4.75,-39.5,20,109.95,-77.79,-78.16,19725,2015-10-08 14:01:10:504,1
-1.8579,11.7029,1.245,1.9535,9.5864,0.6749,-3.9072,2.2122,0.3402,-0.3792,1.0184,-0.1768,-7.25,-38.75,20,110.21,-77.09,-73.26,19825,2015-10-08 14:01:10:604,1
-0.4214,11.3198,2.3176,1.3084,9.6633,1.0386,-1.5382,1.6565,1.1832,0.1555,1.0972,-0.522,-8.25,-37.5,19.75,112.46,-78.56,-64.52,19925,2015-10-08 14:01:10:704,1
0.0958,10.5153,1.992,0.0577,9.7796,0.7253,0.1644,0.7334,1.2991,0.4581,1.029,-1.2272,-8.5,-40.25,18,132.87,-84.94,-30.62,20025,2015-10-08 14:01:10:804,1
-1.4557,9.9216,0.2682,-1.5618,9.6808,0.1151,0.1061,0.2408,0.1531,0.3451,0.5965,-0.9119,-5.75,-40.25,17.75,228.95,-82.45,79.25,20125,2015-10-08 14:01:10:904,1
-0.1724,9.3853,0.4405,-1.8854,9.6237,-0.028,1.413,-0.1868,1.0307,0.4304,0.3814,-0.343,-1.75,-39,19.5,241.78,-79.12,86.17,20226,2015-10-08 14:01:11:005,1
2.9113,7.5848,-3.6583,-1.7396,9.6251,-0.7088,4.6509,-2.0402,-2.9496,-0.7414,0.1619,0.3324,0.25,-41.75,20.5,258.14,-78.13,102.16,20326,2015-10-08 14:01:11:105,1
5.0566,6.608,0.0958,-0.5403,9.7753,-0.5679,7.1866,-3.5503,-1.0984,-0.277,-1.1697,0.8607,0,-41.5,23,310.07,-85.42,136.43,20426,2015-10-08 14:01:11:205,1
4.4245,7.6614,0.2107,0.7985,9.7654,-0.4127,3.4153,-2.9275,0.1637,-0.2216,-0.2791,1.1484,-1.25,-41,23,69.06,-84.74,-117.33,20526,2015-10-08 14:01:11:305,1
2.49,8.3893,-0.1149,1.4656,9.6944,-0.2041,1.0916,-1.3144,0.1162,-0.4048,0.1513,0.3941,-3.75,-40.5,24.25,75.86,-83.41,-110.46,20626,2015-10-08 14:01:11:405,1
2.2027,8.9064,-0.0575,1.6682,9.6607,-0.2427,0.6018,-0.7664,0.1522,0.1364,-0.0362,0.1768,-4,-39.5,24,88.23,-80.69,-97.56,20726,2015-10-08 14:01:11:505,1
2.2027,9.0405,-0.5555,1.7615,9.6428,-0.2903,0.4685,-0.6073,-0.2662,-0.0447,0.0298,0.0149,-5.75,-39.75,23.25,85.18,-79.83,-100.08,20826,2015-10-08 14:01:11:605,1
2.5091,9.1554,-0.5363,1.8217,9.6329,-0.2438,0.6019,-0.4348,-0.9125,-0.2578,0.326,-0.2557,-6,-39.75,23,84.62,-79.33,-99.25,20926,2015-10-08 14:01:11:705,1
2.739,9.347,-0.6321,1.6088,9.6735,-0.0748,0.8428,-0.384,-0.4423,-0.1044,0.2152,-0.4368,-6.5,-40.75,23,88.13,-79.94,-95.09,21025,2015-10-08 14:01:11:804,1
2.7773,8.6,0.7661,1.3215,9.7107,0.3563,1.4558,-1.1107,0.4099,-0.196,0.4304,-0.6711,-6,-40.75,22.25,103.93,-81.98,-74.91,21125,2015-10-08 14:01:11:904,1
1.8004,8.0062,1.1875,0.7254,9.7664,0.5108,0.4223,-1.6802,0.2591,-0.1704,0.066,-0.4943,-5.75,-41.5,19.5,106.82,-82.81,-69.89,21225,2015-10-08 14:01:12:004,1
0.7661,7.4699,1.1301,0.383,9.7894,0.4379,0.7791,-2.2452,0.2787,0.392,0.2216,-0.4155,-3.25,-41.75,19.25,133.42,-85.8,-44.21,21325,2015-10-08 14:01:12:104,1
-0.2298,8.2935,1.4557,0.2447,9.7931,0.4542,-0.1023,-1.2509,0.7658,0.2578,0.4389,0.1364,-2.25,-42.25,19.25,149.06,-86.98,-28.31,21426,2015-10-08 14:01:12:205,1
0.5555,9.8258,0.2682,0.2315,9.7994,0.2977,0.3905,-0.0111,0.0534,0.1981,0.1087,0.0043,-3,-42,18.5,142.78,-87.58,-31.42,21526,2015-10-08 14:01:12:305,1
-1.1684,9.2895,-0.1532,0.0703,9.8014,0.3117,-1.8454,-0.7616,-0.5669,0.0149,0.0831,-0.1321,-2.25,-41,19.75,162.7,-88.13,-12.72,21625,2015-10-08 14:01:12:404,1
-2.4708,10.5919,-0.4597,0.0391,9.7828,0.6827,-2.5795,0.9465,-0.4213,-0.4943,-0.4708,0.2706,-3.25,-41.5,19.75,170.31,-87.36,-2.05,21725,2015-10-08 14:01:12:504,1
-1.7621,10.726,0.2682,0.0158,9.7744,0.7943,-1.7418,0.9507,-0.208,0.0192,-0.1001,0.1321,-2.75,-41.25,19.25,172.99,-85.28,-2.42,21825,2015-10-08 14:01:12:604,1
-0.9194,10.2089,-0.4022,0.0522,9.7906,0.5591,-0.9584,0.4169,-0.9371,0.2429,-0.13,0.0597,-3.5,-41.5,18,170.13,-85.44,-2.57,21925,2015-10-08 14:01:12:704,1
-0.249,9.5768,0.0958,-0.047,9.7939,0.4981,-0.2129,-0.2173,-0.3997,0.2131,-0.0937,-0.0618,-3.75,-40.5,17.75,170.92,-86.84,2.39,22025,2015-10-08 14:01:12:804,1
0.1149,9.1746,0.4788,-0.1325,9.7942,0.4753,0.2204,-0.6198,-7.0000E-04,0.049,-0.1385,-0.2216,-3.75,-41.75,17.75,173.11,-86.81,5.47,22125,2015-10-08 14:01:12:904,1
0.2298,8.7724,0.6704,-0.1425,9.7964,0.4241,0.3523,-0.9276,0.1152,0.1278,-0.0682,0.0703,-3.25,-40.25,18.25,188.13,-87.15,18.46,22225,2015-10-08 14:01:13:004,1
0.6512,8.9064,0.3065,-0.0844,9.8002,0.3444,0.7357,-0.8938,-0.038,0.0128,-0.0724,0.017,-3.75,-40.5,18.25,181.16,-87.93,13.78,22325,2015-10-08 14:01:13:104,1
0.996,9.481,-0.0575,0.0867,9.8,0.3493,0.9093,-0.319,-0.4067,0.2088,-0.1257,0.049,-3.5,-42,19.25,158.74,-87.9,-13.94,22426,2015-10-08 14:01:13:205,1
1.5897,9.1937,0.3639,0.2092,9.7958,0.4105,1.3806,-0.6021,-0.0465,-0.4495,-0.0362,0.1108,-2.75,-41.5,19.25,147.11,-87.31,-27,22526,2015-10-08 14:01:13:305,1
1.3599,8.0637,0.2298,0.4014,9.7693,0.7552,1.3225,-1.3608,-0.7935,-0.4368,-0.147,-0.1023,-2.75,-41,19.5,147.05,-86.24,-28.61,22626,2015-10-08 14:01:13:405,1
0.3065,8.1211,-0.5555,0.5109,9.7557,0.8582,-0.147,-1.7686,-1.2604,0.1129,-0.8032,0.1704,-3,-41.75,19.25,153.71,-84.55,-25.52,22726,2015-10-08 14:01:13:505,1
-0.3448,10.1514,0.6895,1.3102,9.6726,0.9458,-1.7507,0.7278,-0.1605,-0.1917,-1.1867,0.8863,-3,-42.25,17.5,135.38,-81.66,-48.48,22826,2015-10-08 14:01:13:605,1
-0.9577,11.6454,2.375,1.8924,9.564,1.0578,-2.8884,2.1005,1.4897,0.0149,-0.6477,0.6093,-4,-41.25,17.25,133.01,-79.24,-58.78,22926,2015-10-08 14:01:13:705,1
-0.9002,11.6071,2.5091,1.8801,9.5733,0.9934,-2.8378,2.3211,1.2284,0.3963,0.392,-0.245,-5,-41,16.5,125.37,-77.48,-62.15,23026,2015-10-08 14:01:13:805,1
-0.5171,10.4004,1.2641,1.1075,9.7183,0.7061,-1.6246,0.6821,0.5581,0.2578,1.2528,-0.6967,-6.5,-40.5,17.25,118.16,-82.3,-57.48,23125,2015-10-08 14:01:13:904,1
-1.2833,10.3621,-0.4214,0.0592,9.8,0.3573,-1.4502,0.6191,-0.4221,0.1172,1.1143,-0.9673,-5.75,-39.75,18,154.09,-87.88,-9.41,23226,2015-10-08 14:01:14:005,1
-2.49,10.5536,0.8811,-1.1081,9.7415,0.216,-0.3581,1.0995,1.001,0.7883,0.8032,-1.078,-5.75,-40.5,20,212.39,-86.78,53.33,23326,2015-10-08 14:01:14:105,1
-3.4668,9.3278,-0.1724,-1.9704,9.5929,-0.5148,-1.387,-0.5327,0.3715,0.1257,0.3515,0.375,-3.25,-40.25,19.25,250.41,-79.17,101.01,23425,2015-10-08 14:01:14:204,1
1.4365,10.4387,0.1532,-1.8336,9.6092,-0.6873,3.5837,0.7867,2.9098,1.1292,-0.9374,-0.5135,-1,-41,21.25,264.63,-78.48,110.55,23525,2015-10-08 14:01:14:304,1
2.8347,6.9719,-0.2298,-1.7221,9.6232,-0.7738,4.5568,-2.6513,0.544,-0.2599,-0.9289,0.7627,-0.5,-38.25,22,274.37,-78.9,114.2,23625,2015-10-08 14:01:14:404,1
3.3136,7.0294,0.1724,-0.4997,9.7766,-0.5813,3.8133,-2.7473,0.7537,0.5241,-0.9694,1.0674,1.5,-37.25,24.25,293.8,-83.29,118.68,23725,2015-10-08 14:01:14:504,1
2.7007,8.351,-0.8619,0.513,9.7581,-0.8293,2.1877,-1.4071,-0.0326,0.0597,-0.3814,0.686,1.75,-38.25,24.5,27.96,-84.97,-160.28,23825,2015-10-08 14:01:14:604,1
1.2833,8.3893,-0.747,0.7389,9.7592,-0.6184,0.5444,-1.3699,-0.1285,0.2642,0.1321,-0.0511,0.75,-37.25,25,56.36,-84.48,-132.88,23925,2015-10-08 14:01:14:704,1
1.4748,9.1171,-1.245,0.9473,9.7401,-0.6345,0.5467,-0.5847,-0.7062,0.0618,0.0597,0.147,-1.5,-37.5,24.75,60.21,-83.8,-125.64,24025,2015-10-08 14:01:14:804,1
1.4557,8.6,-0.5938,1.0217,9.7338,-0.6162,0.5298,-1.1338,0.0224,0.081,0.0405,-0.0234,-2,-38,24,63.66,-83.13,-121.53,24125,2015-10-08 14:01:14:904,1
1.6664,8.8873,-1.5706,1.0706,9.722,-0.7124,0.5957,-0.8347,-0.8582,-0.326,0.1214,0.0916,-3.25,-38.75,23.25,62.93,-82.61,-123.24,24225,2015-10-08 14:01:15:004,1
2.4325,8.7532,-0.2873,1.2319,9.7213,-0.3865,1.2006,-0.9681,0.0992,-0.3984,0.2834,-0.2301,-3,-39.5,24,77.63,-82.43,-107.42,24325,2015-10-08 14:01:15:104,1
1.5514,8.6383,0.8811,1.1712,9.7362,0.0711,0.3803,-1.0979,0.81,-0.2152,0.3963,-0.2258,-2.75,-39.5,22,86.16,-82.58,-101.58,24426,2015-10-08 14:01:15:205,1
1.0151,8.351,0.5746,1.0474,9.7442,0.3509,0.2359,-1.0677,-0.5424,-0.4815,0.5305,-0.3174,-3.25,-40.75,20.75,102.71,-83.19,-81.87,24526,2015-10-08 14:01:15:305,1
1.5706,8.8873,1.9537,0.9117,9.7223,0.9033,1.3676,-0.6435,0.6481,0.1001,0.2301,-0.0874,-4,-40.5,19,132.74,-82.5,-46.57,24626,2015-10-08 14:01:15:405,1
1.245,9.098,0.249,0.6568,9.7598,0.6962,0.5882,-0.6619,-0.4472,0.1917,0.3238,-0.3835,-3.25,-41.25,17.25,135.06,-84.09,-44.75,24726,2015-10-08 14:01:15:505,1
-0.1915,8.7532,0.8045,0.3802,9.7721,0.7296,-0.5717,-1.0189,0.0749,0.4112,0.2663,-0.1449,-3.25,-42,17,148.51,-85.19,-27.52,24826,2015-10-08 14:01:15:605,1
-2.7007,9.2895,1.4365,0.2363,9.775,0.7514,-2.2857,-0.2173,0.3021,-0.1342,-0.1427,0.4879,-1.75,-41.75,18,159.83,-85.39,-17.45,24926,2015-10-08 14:01:15:705,1
-1.8579,10.5919,0.9002,0.3089,9.7689,0.8024,-2.3775,0.7848,0.3659,0.2365,-0.1726,0.5049,-2.5,-42.25,18.25,156.01,-85.08,-22.21,25026,2015-10-08 14:01:15:805,1
-1.8196,10.5536,-0.9577,0.4443,9.7864,0.446,-2.3213,0.8055,-1.4037,-0.2684,0.0746,0.3004,-2,-39.75,18,134.52,-86.32,-44.89,25125,2015-10-08 14:01:15:904,1
1.1301,10.5919,-0.0958,0.7186,9.7738,0.3557,0.6542,1.1442,-0.4695,0.2173,-0.1704,0.2067,-4.5,-39,19.75,123.98,-86.2,-50.43,25225,2015-10-08 14:01:16:004,1
1.0534,9.481,0.6895,0.6883,9.7748,0.3868,0.3459,-0.3321,0.2845,0.0107,-0.1001,-0.0959,-4.75,-38.5,19.25,112.45,-85.39,-61.02,25326,2015-10-08 14:01:16:105,1
0.5938,9.0022,0.6129,0.6063,9.78,0.3935,0.0104,-0.7781,0.2204,0.0746,0.0234,0.0511,-4.25,-39.25,19,118.52,-85.77,-57.02,25426,2015-10-08 14:01:16:205,1
1.0726,9.2129,0.1532,0.5291,9.7863,0.3457,0.4364,-0.534,-0.0893,0.0639,-0.1023,0.0618,-4,-40.75,18.75,118.59,-86.21,-56.52,25525,2015-10-08 14:01:16:304,1
1.9345,9.2512,0.5555,0.531,9.7839,0.4035,1.3428,-0.4747,0.2378,-0.0426,0.0575,-0.0426,-3,-40.25,18.75,124.87,-86.1,-52.77,25625,2015-10-08 14:01:16:404,1
2.7007,9.347,-0.1149,0.5815,9.786,0.2566,2.1192,-0.4391,-0.3715,0.098,0.0639,-0.2003,-3.25,-40.5,19.5,122.7,-86.02,-55.07,25725,2015-10-08 14:01:16:504,1
2.1261,8.1403,0.0192,0.5865,9.786,0.2456,1.8585,-1.3197,-0.3823,-0.0234,0.0149,-0.1683,-2.25,-38.25,19.75,113.35,-86.23,-67.46,25825,2015-10-08 14:01:16:604,1
1.245,8.5425,-0.6512,0.5551,9.7906,0.0809,0.3613,-1.0566,-0.7222,0.196,-0.6626,-0.0256,-1.75,-38,19.5,116.27,-86.5,-63.92,25925,2015-10-08 14:01:16:704,1
-0.0958,9.481,1.0726,0.718,9.7775,0.2356,-0.5396,-0.2402,0.8884,0.1555,-0.7713,0.1257,-1.25,-38,19.5,105.44,-86.3,-78.28,26025,2015-10-08 14:01:16:804,1
-1.6664,8.849,0.9768,0.8493,9.7614,0.4063,-2.153,-0.7237,0.6042,-0.2024,-0.7414,0.3665,-0.25,-38.75,20,120.83,-84.98,-67.53,26126,2015-10-08 14:01:16:905,1
-3.1603,9.347,0.6129,0.9657,9.7429,0.5606,-4.0506,-0.4373,-0.1163,-0.3537,-0.5731,0.4368,0,-39,19.5,126.18,-83.97,-63.21,26226,2015-10-08 14:01:17:005,1
-2.9497,11.0516,2.0494,1.0603,9.704,0.9371,-4.0318,1.3455,1.1607,-0.3494,0.2216,0.3174,0,-40.25,18.5,137.33,-82.28,-53.5,26326,2015-10-08 14:01:17:105,1
-1.5131,11.2432,1.0534,0.6871,9.7366,0.9467,-2.6927,1.2856,1.009,0.6818,1.3039,-0.2407,-0.75,-40.5,17.25,146.9,-81.51,-42.61,26426,2015-10-08 14:01:17:205,1
-1.1492,11.3006,1.1492,-0.1061,9.7836,0.6643,-0.9633,1.6498,0,-0.1044,1.4232,-0.5561,-3.5,-39.25,16.5,148.01,-84.39,-32.12,26526,2015-10-08 14:01:17:305,1
-1.7621,10.1131,1.5897,-0.7246,9.7624,0.5831,-1.2637,0.1857,0.9531,0.6967,1.0141,-1.208,-4.25,-38.25,17,190.42,-85.43,25.48,26626,2015-10-08 14:01:17:405,1
0.3831,10.2472,1.8196,-1.5413,9.6843,-0.0927,1.8829,0.735,1.2105,-0.196,0.3302,-0.228,-3.75,-40,17.5,243.82,-81.96,90.21,26726,2015-10-08 14:01:17:505,1
0.6321,9.5385,0.0383,-1.5355,9.6796,-0.3444,2.1675,-0.1411,0.3827,0.2471,-0.5731,-0.1768,-2.75,-40,19.5,250.02,-80.66,96.97,26825,2015-10-08 14:01:17:604,1
4.1372,6.11,0.7661,-1.1075,9.739,-0.31,5.2446,-3.629,1.0762,0.8756,-1.1867,0.2535,-0.75,-39.25,20.5,270.26,-83.27,105.64,26925,2015-10-08 14:01:17:704,1
4.616,7.5274,-0.498,-0.2775,9.7544,-0.9717,4.8935,-2.2271,0.4738,0.5731,-0.9864,0.7372,0.5,-38.5,21,315.41,-83.68,140.91,27025,2015-10-08 14:01:17:804,1
2.1261,8.0062,-0.1341,0.5155,9.7423,-0.9962,1.6106,-1.7361,0.8621,0.0469,-0.1321,0.4155,1,-38.25,23.25,2.51,-83.59,179.41,27126,2015-10-08 14:01:17:905,1
1.6855,8.7149,-1.8387,0.9283,9.7039,-1.0693,0.7572,-0.989,-0.7695,-0.1257,0.2301,0.1577,0.75,-37.75,24.5,53.81,-81.7,-139.04,27226,2015-10-08 14:01:18:005,1
1.4174,8.9256,-0.5363,1.2469,9.7069,-0.6258,0.2043,-0.8204,0.2765,-0.7499,0.228,0.3473,-0.75,-36.75,24.75,62.26,-81.73,-126.64,27325,2015-10-08 14:01:18:104,1
2.2218,9.5002,-0.5746,1.5036,9.6781,-0.4931,0.7757,-0.312,-0.0815,-0.0703,0.1534,0.0511,-2,-37.5,23.25,80.92,-81.52,-109.46,27425,2015-10-08 14:01:18:204,1
2.2601,8.6383,-0.5555,1.5563,9.6729,-0.4279,0.7038,-1.0346,-0.1276,-0.3515,0.2493,-0.0064,-3.5,-39,22,80.77,-80.67,-107.32,27525,2015-10-08 14:01:18:304,1
2.5474,8.5617,-0.0192,1.598,9.674,-0.1724,1.0393,-1.0927,0.3583,-0.245,0.4794,-0.1555,-3.5,-37.75,21.25,92.96,-80.57,-96.16,27625,2015-10-08 14:01:18:404,1
2.5091,8.5234,0.1149,1.4556,9.697,0.1384,1.0727,-1.3078,-0.081,-0.0107,0.4602,-0.3068,-4.5,-38.25,20.25,95.23,-80.67,-90.83,27725,2015-10-08 14:01:18:504,1
3.2178,8.5234,-0.1724,1.166,9.7305,0.3585,2.0518,-1.2071,-0.5309,0.2663,0.2919,-0.5284,-4.25,-39.75,18.5,104.25,-81.7,-79.98,27825,2015-10-08 14:01:18:604,1
2.1261,8.0254,0.1532,0.9166,9.7516,0.4863,1.2094,-1.7262,-0.3331,-0.179,-0.0085,-0.637,-4,-40,17.5,110.31,-83.61,-70.17,27925,2015-10-08 14:01:18:704,1
0.1532,9.1171,-0.6321,0.5742,9.7871,0.232,-0.6699,-0.6317,-0.7491,0.0447,0.2365,-0.1896,-3.5,-38.75,17.75,126.09,-84.45,-53.97,28025,2015-10-08 14:01:18:804,1
-0.4405,9.8067,-0.0575,0.3451,9.7939,0.363,-0.8225,0.0719,-0.6316,-0.2045,-0.1214,-0.0852,-1.75,-40,17.5,118.87,-86.47,-61.43,28125,2015-10-08 14:01:18:904,1
-2.8347,10.1897,0.1915,0.0938,9.7917,0.5331,-2.4912,0.1876,-0.032,-0.0724,-0.2855,-0.2173,-1,-38.75,18.25,146.18,-87.03,-34.27,28228,2015-10-08 14:01:19:007,1
-2.9497,10.1514,0.3448,-0.1491,9.789,0.5689,-2.5133,0.439,-0.8754,0.1065,-0.3622,0.1577,-0.75,-38.25,17.5,184.78,-86.31,8.6,28325,2015-10-08 14:01:19:104,1
-2.0686,9.9982,0.2298,-0.1804,9.7789,0.7142,-1.8885,0.276,-0.2595,-0.0469,-0.2024,-0.0341,-0.5,-39.5,17.25,192.13,-85.69,14.17,28425,2015-10-08 14:01:19:204,1
-1.2641,9.596,1.0534,-0.2628,9.7729,0.769,-0.9997,-0.1758,0.2701,-0.2407,-0.0341,0.147,-0.25,-39.5,16.75,195.93,-85.25,18.87,28525,2015-10-08 14:01:19:304,1
-0.498,9.4427,0.8236,-0.2806,9.7732,0.7596,-0.2174,-0.3304,0.064,-0.13,0.1427,0.0064,-0.5,-40,16.75,196.94,-85.11,20.14,28626,2015-10-08 14:01:19:405,1
0.3065,9.2895,0.2873,-0.2575,9.7845,0.6067,0.6095,-0.5736,-0.2415,0.1257,0.0937,0.1108,-1,-38.75,16,196.76,-86.15,23,28726,2015-10-08 14:01:19:505,1
0.996,9.098,0.1149,-0.1386,9.7935,0.4888,1.1346,-0.6955,-0.3739,0.0767,0.0575,0.0618,-0.5,-38.25,16.75,196.89,-86.68,19.02,28826,2015-10-08 14:01:19:605,1
1.5514,9.2129,-0.0575,0.0061,9.7978,0.4169,1.5262,-0.6424,-0.5892,0.1449,-0.2812,-0.0341,-0.75,-38.25,17,179.25,-87.23,2.54,28926,2015-10-08 14:01:19:705,1
1.1492,8.8873,0.1724,0.1764,9.791,0.525,0.6089,-1.0378,0.0305,-0.277,-0.2621,0.1278,-0.75,-39.75,16.75,166.08,-87.17,-12.13,29026,2015-10-08 14:01:19:805,1
0.3065,8.6766,0.6704,0.3223,9.7847,0.5713,0.0225,-1.0698,0.1756,0.0767,-0.3153,0.375,-0.25,-39.75,16.75,160.08,-86.35,-22.73,29125,2015-10-08 14:01:19:904,1
-1.0151,9.2129,-0.0766,0.6676,9.7764,0.3821,-1.6828,-0.5635,-0.4587,-0.098,-0.7521,0.5177,-1.5,-40.5,17.25,130.42,-85.86,-53.57,29225,2015-10-08 14:01:20:004,1
-0.9385,9.9982,1.8004,1.0573,9.7347,0.5371,-1.9958,0.2635,1.2633,-0.0043,-0.7073,0.6818,-1,-40,17.25,125.03,-85.5,-60.22,29325,2015-10-08 14:01:20:104,1
-1.3024,10.8026,2.3176,1.2366,9.7065,0.6521,-2.4816,0.9429,1.3782,-0.0383,0.0767,0.2663,-1.5,-39,18.25,123.36,-83.05,-63.07,29425,2015-10-08 14:01:20:204,1
-1.7238,11.5688,1.2641,0.6919,9.7702,0.4844,-2.4157,1.7986,0.7797,0.5582,0.4645,-0.2514,-1.75,-38.25,17.25,127.62,-81.68,-59.75,29525,2015-10-08 14:01:20:304,1
-1.1109,11.4922,1.8196,-0.3789,9.7979,0.1663,-0.732,1.6943,1.6533,0.5689,1.1974,-0.9779,-3,-37.75,17.75,158.32,-87.97,-13.76,29626,2015-10-08 14:01:20:405,1
-2.5474,10.228,0.7278,-1.6774,9.6599,-0.206,-0.8701,0.5681,0.9339,0.1747,1.3955,-1.208,-2.75,-37.25,18.5,230.08,-87.58,66.31,29726,2015-10-08 14:01:20:505,1
-1.8196,9.6726,2.1069,-2.3996,9.508,-0.1046,0.58,0.1646,2.2114,-0.4517,0.5902,-0.3728,-1,-38.25,21.5,250.03,-76.32,95.26,29826,2015-10-08 14:01:20:605,1
-0.2107,8.6,0.8045,-2.4815,9.4837,-0.2701,2.2608,-1.1968,0.7213,0.4985,-0.4772,0.1917,2,-39.75,20.75,252.53,-75.31,94.74,29926,2015-10-08 14:01:20:705,1
3.3902,6.8187,0.6321,-1.653,9.6526,-0.5145,4.5004,-2.6699,0.7309,1.127,-1.5702,0.9928,3.5,-41,21.75,278.49,-79.83,107.29,30026,2015-10-08 14:01:20:805,1
4.5969,7.1251,-1.4748,-0.2502,9.7452,-1.0672,4.3718,-2.601,-0.2412,0.735,-1.0099,1.3763,2.5,-41,23,352.77,-83.58,166.81,30126,2015-10-08 14:01:20:905,1
4.0031,8.6,-2.241,1.4536,9.6142,-1.2745,2.6483,-1.0344,-0.4476,-0.9758,0.3047,0.7286,0,-39.5,26.25,25.5,-81.99,-164.79,30226,2015-10-08 14:01:21:005,1
2.624,8.7532,-0.6129,1.9672,9.561,-0.9425,0.7221,-0.8316,0.2143,0.5752,0.1129,0.0128,-3,-37,27.75,75.01,-78.27,-114.43,30326,2015-10-08 14:01:21:105,1
1.9345,8.8873,-1.8771,1.9895,9.5424,-1.0746,0.0229,-0.5008,-1.0585,-0.1726,0.1875,-0.017,-4.75,-38.5,26.25,67.77,-76.57,-120.33,30426,2015-10-08 14:01:21:205,1
2.873,9.3661,-1.2833,2.0993,9.5233,-1.034,0.8834,-0.3357,0.2949,-0.2834,0.13,-0.0959,-7,-36.75,26.25,67.39,-76.19,-116.22,30526,2015-10-08 14:01:21:305,1
3.1795,8.734,-0.9577,2.0214,9.5565,-0.87,0.9054,-0.9991,0.5144,-0.0213,0.3111,-0.3409,-6.25,-36.75,25.75,72.82,-76.76,-112.74,30626,2015-10-08 14:01:21:405,1
2.4708,8.4084,-0.5171,1.8243,9.6001,-0.8246,0.539,-0.9682,0.4831,0.0916,0.4197,-0.2386,-7.25,-37,24.25,66.22,-78.22,-114.32,30726,2015-10-08 14:01:21:505,1
2.1452,8.4659,0.1149,1.6515,9.6553,-0.4663,0.4937,-1.1894,0.5812,-0.669,0.4453,-0.4027,-7.25,-38.5,24,73.19,-79.92,-105.77,30826,2015-10-08 14:01:21:605,1
1.1301,8.8873,0.2682,1.2709,9.719,-0.311,-0.1409,-0.8317,0.5791,-0.6839,0.3686,-0.3941,-6.75,-37.75,23.25,71.08,-82.33,-103.75,30926,2015-10-08 14:01:21:705,1
0.1341,8.1786,1.3216,1.0021,9.7549,0.0936,-0.5618,-1.2332,1.6925,-0.5518,0.147,-0.3302,-6.25,-38.75,21.75,90.25,-84.11,-84.66,31026,2015-10-08 14:01:21:805,1
0.6321,8.8681,0.3639,0.7997,9.7651,0.4156,-0.1677,-0.897,-0.0517,-0.2663,-0.13,-0.6179,-4.75,-39.25,20.25,103.21,-83.94,-71.4,31126,2015-10-08 14:01:21:905,1
-0.1724,8.8681,1.8579,0.2641,9.7684,0.8243,-0.4365,-0.9003,1.0336,-0.0192,-0.7329,-0.946,-3.5,-39.75,19,136.56,-85.46,-37.91,31226,2015-10-08 14:01:22:005,1
-3.237,8.6766,0.1724,-0.5321,9.7503,0.9055,-2.7049,-1.0737,-0.7331,0.0277,-0.7968,-0.3856,-0.75,-40.5,17.25,178.67,-84.72,4.43,31326,2015-10-08 14:01:22:105,1
-4.3479,9.8067,-0.2107,-0.9568,9.73,0.7633,-3.3911,0.0767,-0.9739,-0.1065,-0.6669,0.2791,2.5,-42.75,17,223.43,-82.85,48.66,31426,2015-10-08 14:01:22:205,1
-2.7581,9.481,0.498,-0.9233,9.7372,0.7102,-1.988,-0.1221,-0.4612,0.2493,-0.3686,0.1193,4.5,-41.25,17,229.92,-82.83,49.8,31526,2015-10-08 14:01:22:305,1
-1.3216,10.0556,-0.2107,-0.883,9.7555,0.4706,-0.7833,0.2619,-0.6813,0.0234,-0.0149,0.1278,5.25,-41.25,17.75,245.75,-84.14,61.95,31626,2015-10-08 14:01:22:405,1
-0.9002,9.3853,0.6129,-0.8871,9.7556,0.4592,-0.0897,-0.4661,0.1537,0.2855,-0.0298,-0.081,5,-39.25,18.75,243.36,-84.33,58.38,31726,2015-10-08 14:01:22:505,1
-0.9002,9.0214,0.6704,-0.9724,9.749,0.4271,0.1296,-0.6893,0.205,0.0703,-0.0128,-0.0788,5.5,-40.75,18.5,250.45,-83.92,64.74,31826,2015-10-08 14:01:22:605,1
-0.2682,9.2129,0.3065,-0.9585,9.7515,0.399,0.6904,-0.5386,-0.0925,-0.0383,0.0597,0.0064,6.75,-40.25,18.5,255.93,-83.92,67.4,31926,2015-10-08 14:01:22:705,1
0.2873,9.347,-0.0958,-0.905,9.7582,0.3586,1.1923,-0.4113,-0.4543,-0.0128,-0.0554,-0.0362,6.75,-40.25,18.5,257.58,-84.3,68.38,32026,2015-10-08 14:01:22:805,1
0.9768,9.6151,-1.2833,-0.9029,9.7634,0.179,1.8758,-0.3613,-1.2379,0.0128,-0.049,-0.1939,5.5,-40,18.75,265.46,-84.61,78.79,32126,2015-10-08 14:01:22:905,1
-0.1149,8.1403,0.2298,-0.8516,9.7664,0.2493,0.9333,-1.6251,-0.098,0.2599,-0.0277,-0.0383,5,-40.25,18.75,258.05,-84.81,73.68,32226,2015-10-08 14:01:23:005,1
-1.743,8.4276,-0.5555,-0.7292,9.7787,-0.127,-0.7862,-1.5596,-0.5556,0.4687,-0.5326,0.5816,5.75,-40.5,18.75,267.89,-85,80.47,32326,2015-10-08 14:01:23:105,1
-0.996,9.6151,0.9577,-0.0286,9.7972,-0.4294,-0.9469,-0.4482,0.8321,0.0554,-0.6498,0.9779,5.5,-40.75,18.75,333.4,-86.82,138.83,32426,2015-10-08 14:01:23:205,1
-1.8387,10.8984,0.4597,0.4565,9.7839,-0.4876,-2.0845,0.8847,0.8515,0.066,-0.5902,0.9119,6,-38.5,20.75,51.36,-86.81,-148.97,32526,2015-10-08 14:01:23:305,1
-3.2561,11.5879,0.6895,0.7637,9.7761,-0.1222,-4.1348,1.831,1.0607,-0.3068,0.2237,-0.0341,3.75,-38.5,21.25,76.51,-85.49,-124.88,32626,2015-10-08 14:01:23:405,1
-2.5857,11.3006,1.6089,0.3135,9.8001,0.1738,-3.1674,1.8645,1.9139,0.1981,1.2229,-0.767,1.5,-38.25,22,109.52,-86.69,-81.01,32727,2015-10-08 14:01:23:506,1
-1.0726,11.0516,-0.5171,-1.2406,9.7163,-0.4737,0.1106,1.1055,0.1481,-0.2471,1.5425,-1.012,0.75,-39.5,20.75,197.83,-89.48,15.49,32825,2015-10-08 14:01:23:604,1
-3.1029,8.6,0.2107,-2.0986,9.5568,-0.6582,-1.0043,-0.9569,0.8689,1.0269,0.0959,-1.3081,0.75,-38.25,21.75,271.96,-80.6,105.97,32925,2015-10-08 14:01:23:704,1
-1.1301,9.5577,1.8579,-2.6725,9.3956,-0.867,1.5424,0.1621,2.7249,-0.4602,0.6456,0.1001,2.25,-37.75,22.5,267.57,-74.27,110.4,33025,2015-10-08 14:01:23:804,1
-0.6129,8.1786,-1.992,-2.3016,9.4518,-1.2397,2.6272,-1.4839,-0.2159,-0.1108,-0.0085,0.9353,4.75,-37.5,24.75,281.52,-73.31,115.9,33125,2015-10-08 14:01:23:904,1
4.9033,7.7189,-0.3448,-1.1833,9.6599,-1.2069,6.0867,-1.941,0.8621,1.0674,-0.9737,0.4666,5.25,-37.25,25,301.35,-78.4,125.22,33225,2015-10-08 14:01:24:004,1
4.3287,6.9145,-1.2258,0.0443,9.653,-1.7288,4.2844,-2.7385,0.503,0.8309,-0.8437,1.0738,3.5,-38,25.25,353.68,-79.96,166.34,33325,2015-10-08 14:01:24:104,1
2.4325,8.1594,-0.8045,1.1807,9.5693,-1.7904,1.9988,-1.1225,0.5263,-1.1611,0.5177,0.2003,1.75,-35.75,28,36.22,-76.07,-159.3,33426,2015-10-08 14:01:24:205,1
1.5706,8.4659,-1.6089,1.3304,9.6072,-1.4496,0.2785,-1.0647,-0.3317,-0.1342,0.0575,0.0597,-0.25,-34.75,28.75,53.07,-78.34,-138.9,33526,2015-10-08 14:01:24:305,1
1.7047,8.6191,-1.1301,1.4595,9.6184,-1.2353,0.2762,-0.9996,0.1388,-0.3196,0.1321,0.2109,-2.5,-35.5,27.5,55.26,-78.75,-132.86,33626,2015-10-08 14:01:24:405,1
2.2601,8.6,-1.2833,1.4845,9.6355,-1.0603,0.7757,-1.0355,-0.223,-0.1683,0.1747,-0.1577,-3,-36.5,26.25,60.37,-78.88,-127.05,33725,2015-10-08 14:01:24:504,1
2.2984,7.7955,-0.1724,1.3697,9.6792,-0.7794,1.0436,-1.9794,0.5879,-0.3835,0.1108,-0.3004,-3.25,-36.75,25.25,61.9,-79.28,-125.54,33825,2015-10-08 14:01:24:604,1
2.7773,8.351,0.1341,1.1159,9.7429,-0.0435,1.6889,-1.5943,0.8463,-0.1598,0.1726,-0.4687,-3,-38.75,23.75,70.6,-81.29,-115.02,33926,2015-10-08 14:01:24:705,1
2.7773,9.2129,-1.0534,0.7572,9.7774,-0.0085,2.0531,-0.5993,-0.3398,0.2024,0.2024,-0.8586,-1.75,-40.75,21.75,93.63,-83.46,-92.23,34025,2015-10-08 14:01:24:804,1
-0.0192,9.2703,0.4405,0.2847,9.8015,0.1412,-0.3038,-0.5312,0.2993,-0.3025,0.2365,-0.375,-0.25,-39.5,20.75,100.14,-87.81,-83.86,34125,2015-10-08 14:01:24:904,1
-1.5131,9.3853,1.9537,-0.0055,9.7896,0.5778,-1.5076,-0.4043,1.3758,-0.2344,-0.1491,-0.1172,2.5,-40,20.5,178.69,-87.36,-9.55,34226,2015-10-08 14:01:25:005,1
-1.2258,9.232,0.4022,-0.1581,9.7877,0.5882,-1.0677,-0.5557,-0.186,-0.1726,0.0511,-0.0298,2.5,-39.25,19.25,186.56,-86.34,1.64,34326,2015-10-08 14:01:25:105,1
-3.1412,9.5385,1.3408,-0.2955,9.7582,0.9275,-2.9902,-0.538,-0.1076,-0.5156,-0.1214,0.1726,2.5,-41.25,18.5,204.37,-85.05,19.68,34425,2015-10-08 14:01:25:204,1
-3.122,10.7452,1.1492,-0.3358,9.7482,1.0153,-2.3132,0.8255,0.6537,-0.1854,-0.0682,0.4304,3.25,-43,17.75,204.18,-83.98,20.42,34525,2015-10-08 14:01:25:304,1
-1.5706,10.1131,0.1341,-0.3345,9.7725,0.7466,-1.2059,0.281,-0.9898,-0.1001,0.0788,0.2194,2,-41.5,16.25,198.23,-83.76,16.21,34625,2015-10-08 14:01:25:404,1
-0.2682,9.4236,0.4597,-0.3322,9.7786,0.6632,0.1215,-0.2784,-0.1461,0.1065,0.0554,0.0213,1,-40.75,17.5,203.04,-85.4,24.01,34726,2015-10-08 14:01:25:505,1
0.0575,9.1363,0.5938,-0.3457,9.7811,0.6167,0.4415,-0.7023,0.0536,0.0469,0.1236,-0.0682,1.75,-40.5,17.75,210.08,-85.7,28.44,34825,2015-10-08 14:01:25:604,1
0.1341,8.9447,0.7853,-0.2953,9.7818,0.6328,0.4294,-0.837,0.1525,-0.0234,0.1641,0.0085,1.75,-41,18.5,209.19,-85.9,27.41,34925,2015-10-08 14:01:25:704,1
1.1684,9.4236,0.0575,-0.0871,9.7907,0.552,1.2753,-0.3664,-0.6541,0.0746,0.0767,0.0767,0,-40.25,18.75,193.27,-86.54,14.92,35026,2015-10-08 14:01:25:805,1
1.6472,8.983,0.3256,0.0118,9.7897,0.5763,1.8523,-0.9402,-0.1827,-0.0874,-0.0085,-0.0277,-1,-41.25,19,178.42,-86.72,1.24,35126,2015-10-08 14:01:25:905,1
1.7238,9.1171,0.5171,0.1883,9.7801,0.696,1.4996,-0.7578,0.0557,0.1385,0.1726,-0.1065,-0.75,-40.5,19,174,-86.27,-6.79,35226,2015-10-08 14:01:26:005,1
1.4748,8.6383,1.1492,0.3869,9.7709,0.7419,0.9922,-1.0943,0.4456,0.0639,-0.1193,0.1108,-1.5,-41.5,18.75,156.33,-85.56,-24.43,35326,2015-10-08 14:01:26:105,1
0.0383,9.0214,0.3256,0.7199,9.7707,0.4318,-0.9306,-0.7301,0.1236,-0.0107,-0.4708,0.4708,-0.75,-40.25,19,151.15,-85.09,-34.16,35426,2015-10-08 14:01:26:205,1
-1.9345,9.8258,-0.3065,1.012,9.7526,0.1793,-2.5812,-0.1046,-0.1281,0.1342,-0.8927,0.5944,-1,-41.75,19.75,117.43,-84.37,-70.16,35526,2015-10-08 14:01:26:305,1
-2.8156,11.4539,0.3639,1.2733,9.7209,0.2293,-3.9703,1.5416,0.0114,-0.3707,-0.5071,0.6051,-2.25,-40.75,20.75,105.33,-82.97,-82.48,35626,2015-10-08 14:01:26:405,1
-2.2984,11.8561,1.4557,0.7468,9.7648,0.5112,-3.1173,2.4081,0.7391,-0.2216,0.3217,-0.3558,-3.25,-41,21,113.97,-83.82,-68.79,35726,2015-10-08 14:01:26:505,1
-1.9537,10.4196,1.245,-0.2397,9.7954,0.4038,-1.8441,0.6243,0.785,0.6669,0.6775,-1.1569,-2.75,-40.5,20.25,124.43,-84.7,-55.6,35826,2015-10-08 14:01:26:605,1
-2.3559,12.2775,0.498,-1.3677,9.7107,0.0488,-1.3138,2.1263,0.2002,-0.1193,1.1484,-0.6136,-1.5,-40.5,20.25,251.02,-83.78,85.65,35925,2015-10-08 14:01:26:704,1
-2.7964,8.7149,1.8579,-2.2903,9.5316,0.2692,-0.4055,-0.7933,1.6376,0.522,0.571,-0.9523,0.5,-40.5,21.25,244.15,-80.25,80.9,36025,2015-10-08 14:01:26:804,1
-0.498,8.9447,-0.3256,-2.5537,9.4664,-0.19,2.01,-0.5304,-0.0064,1.2442,0.081,0.2194,1.25,-42.5,20.75,239.73,-75.01,86.88,36125,2015-10-08 14:01:26:904,1
3.2178,7.0868,-0.7853,-1.79,9.6261,-0.5519,5.2538,-2.4895,-0.221,-0.1129,0.2216,0.9971,2.75,-42.25,22,259.1,-75.11,102.49,36225,2015-10-08 14:01:27:004,1
4.6926,4.4819,-0.5746,-0.3003,9.797,-0.3137,5.2426,-5.303,-0.2235,-0.3856,-0.3792,2.0453,3.25,-41.5,22.5,288.31,-83.75,111.57,36325,2015-10-08 14:01:27:104,1
3.2753,7.8721,0.2682,0.9355,9.7529,-0.4188,2.1805,-1.87,0.5192,-0.8565,-0.3814,0.588,-0.75,-41.25,22.5,66.91,-85.49,-118.09,36425,2015-10-08 14:01:27:204,1
1.9345,8.5617,0.2682,1.4083,9.7043,0.1195,0.5347,-0.9441,0.1897,0.1449,-0.1598,0.1726,-5.25,-41,22.5,95.85,-82,-85.93,36525,2015-10-08 14:01:27:304,1
2.241,9.5193,-0.7087,1.5944,9.6748,-0.1608,0.6671,-0.1936,-0.4881,0.1875,0.0618,-0.0831,-5.25,-40.25,21.25,91.74,-80.9,-92.09,36626,2015-10-08 14:01:27:405,1
2.4517,9.232,-0.6512,1.6636,9.6618,-0.2272,0.7845,-0.5443,-0.3187,-0.1129,0.1342,-0.049,-6,-40.75,22,85.39,-80.07,-97.7,36726,2015-10-08 14:01:27:505,1
2.6049,8.6191,0.0766,1.6946,9.6576,-0.1691,0.9159,-1.0396,0.2411,0.2067,-0.0021,-0.2109,-6.5,-39.5,21.25,86.93,-80.05,-96.22,36825,2015-10-08 14:01:27:604,1
2.7773,8.9447,-0.1532,1.6209,9.671,-0.1196,1.4554,-0.9352,0.1977,-0.4218,0.392,-0.2216,-6.5,-40.25,21,82.22,-80.15,-97.09,36925,2015-10-08 14:01:27:704,1
2.7581,8.9256,0.996,1.4758,9.6922,0.2315,1.2823,-0.7666,0.7645,-0.0213,0.5049,-0.4091,-6.5,-40.75,21.25,93,-80.77,-88.23,37025,2015-10-08 14:01:27:804,1
3.1603,8.2361,-0.0192,1.0044,9.744,0.465,2.156,-1.5079,-0.4842,-0.1811,0.3622,-0.4538,-5.75,-41,20.5,98.34,-82.22,-80.71,37125,2015-10-08 14:01:27:904,1
2.0686,8.102,0.7087,0.576,9.7638,0.7115,-0.3445,-1.3995,-0.2927,0.4964,0.2961,-0.5518,-3.75,-42.5,19,123.43,-83.81,-52.99,37225,2015-10-08 14:01:28:004,1
0.4597,8.8681,0.0383,0.3238,9.7888,0.495,0.0996,-0.8656,-0.6707,0.3025,0.2045,-0.2344,-2.75,-41.75,18,142.86,-85.41,-33.97,37325,2015-10-08 14:01:28:104,1
-0.4214,9.4427,-0.4788,0.1875,9.7955,0.4282,-0.4939,-0.0655,-1.1561,0.1427,-0.0852,-0.0937,-2.25,-41.25,19,147.53,-86.93,-29.96,37426,2015-10-08 14:01:28:205,1
-1.743,9.5768,-0.3065,0.1696,9.7687,0.845,-1.6608,-0.0113,-0.9285,-0.4431,-0.2684,0.326,-1.75,-40.5,18.25,165.34,-86.24,-13.67,37526,2015-10-08 14:01:28:305,1
-2.1644,9.8067,1.7047,0.3192,9.6996,1.4092,-1.9108,0.132,-0.0075,-0.3814,-0.5838,0.3196,-2.75,-39.25,17.25,163.23,-84.03,-14.05,37626,2015-10-08 14:01:28:405,1
-1.8004,9.9216,2.7964,0.4472,9.642,1.733,-2.2034,0.2586,0.675,0.1981,-0.3047,0.3111,-2.5,-40.75,15.75,165.05,-79.48,-14.47,37725,2015-10-08 14:01:28:504,1
-1.0726,10.2472,1.5706,0.4477,9.6778,1.5198,-1.3623,0.5366,-0.2446,0.3622,-0.0277,0.1449,-3,-41.5,14.75,160.4,-80.7,-16.41,37825,2015-10-08 14:01:28:604,1
0.2682,9.3278,1.2833,0.5012,9.6976,1.3693,-0.3384,-0.3898,-0.0265,0.1023,0.1044,0.049,-3.75,-42,15.75,155.03,-81.61,-19.74,37925,2015-10-08 14:01:28:704,1
1.3599,9.1746,1.2641,0.57,9.706,1.2803,0.8499,-0.6099,-0.0608,0.0788,0.1832,0.0767,-3.5,-39.75,15.25,154.86,-81.68,-22.87,38025,2015-10-08 14:01:28:804,1
1.6472,9.1363,1.3982,0.6044,9.7089,1.2419,1.0423,-0.5773,0.079,-0.0383,0.0447,0.0959,-4.75,-40.75,16,147.22,-81.9,-25.95,38125,2015-10-08 14:01:28:904,1
1.2641,9.6151,0.0383,0.5736,9.7424,0.9631,0.7651,-0.205,-0.5869,0.0426,0.1065,-0.2322,-5,-40.75,16.25,145.63,-82.32,-27.7,38226,2015-10-08 14:01:29:005,1
1.2067,8.9639,0.8045,0.4704,9.7406,1.0345,0.7363,-0.7767,-0.23,-0.1491,-0.1491,-0.2578,-4.75,-40.75,16.5,145.14,-83.51,-26.9,38326,2015-10-08 14:01:29:105,1
0.7853,8.4851,1.0151,0.3515,9.7355,1.1254,0.0471,-1.3862,-0.1585,0.0852,-0.3515,-0.2152,-3,-40,16.5,157.22,-83.21,-18.72,38426,2015-10-08 14:01:29:205,1
-0.2107,8.4467,0.6129,0.3378,9.7403,1.0876,-0.943,-1.1583,-0.558,-0.1406,-0.7222,0.13,-2,-42,15.5,159.52,-83.2,-15.72,38525,2015-10-08 14:01:29:304,1
-0.6512,9.2703,0.7278,0.5457,9.7303,1.0923,-1.197,-0.46,-0.3645,-0.0533,-0.848,0.2855,-1.25,-41.75,15.75,162.35,-83.11,-19.42,38625,2015-10-08 14:01:29:404,1
-1.992,10.0173,2.0303,0.8186,9.6965,1.2155,-2.8106,0.3208,0.8148,-0.1534,-0.3643,0.2642,-1.25,-40,15.75,154.12,-82.82,-30.16,38725,2015-10-08 14:01:29:504,1
-2.6432,10.9942,2.1835,0.7464,9.6862,1.3385,-3.3896,1.308,0.8451,0.0724,0.7116,0.1577,-1.5,-39.75,15.75,153.78,-81.1,-32.21,38825,2015-10-08 14:01:29:604,1
-1.245,12.0859,1.9154,0.1575,9.7642,0.8977,-1.4025,2.3217,1.0177,0.9609,1.0482,-0.49,-2.5,-39,16.25,158.64,-82.34,-20.81,38926,2015-10-08 14:01:29:705,1
-1.0151,11.2049,1.5897,-0.6423,9.7706,0.5411,-0.3728,1.4342,1.0487,0.2493,1.1931,-1.208,-3.5,-39.75,18,168.16,-85.65,-0.56,39025,2015-10-08 14:01:29:804,1
-2.0494,9.6726,0.5555,-1.9528,9.6092,0.1456,-0.2375,0.3158,0.8379,-0.0724,0.1555,-0.9651,-1.75,-39.5,18.25,238.16,-78.48,85.73,39125,2015-10-08 14:01:29:904,1
-1.5323,9.9982,1.0726,-2.4467,9.4965,0.0314,0.9144,0.5017,1.0412,0.7627,-0.0341,0.1172,0.25,-39.25,19.5,241.4,-75.51,86.67,39225,2015-10-08 14:01:30:004,1
3.6583,7.3167,-1.5131,-2.0229,9.5888,-0.3657,5.6812,-2.2721,-1.1474,-0.3451,-0.8991,0.6562,1.75,-39.25,19.5,261.84,-77.9,100.25,39325,2015-10-08 14:01:30:104,1
4.2521,6.0142,-0.8619,-0.5789,9.776,-0.515,4.831,-3.7618,-0.3469,0.8075,-1.3593,0.9502,3.25,-42,21,313.13,-85.47,131.66,39425,2015-10-08 14:01:30:204,1
2.7581,7.9871,-0.5938,0.5934,9.76,-0.7483,2.1838,-1.7347,0.0588,0.0959,-0.1768,0.5518,0.75,-39.5,23.25,34.07,-85.54,-158.39,39525,2015-10-08 14:01:30:304,1
1.6281,7.6806,-0.7853,1.0779,9.719,-0.7406,0.8757,-1.2915,-0.4852,-0.1917,0.2876,0.1939,-0.75,-38.25,24.5,54.87,-83.19,-134.43,39625,2015-10-08 14:01:30:404,1
1.8196,8.3893,-0.5938,1.3024,9.7062,-0.514,0.7279,-1.1062,0.2842,-0.3345,0.2748,0.2237,-2,-38,24.5,76.28,-81.79,-111.54,39725,2015-10-08 14:01:30:504,1
2.5091,8.9256,-0.7661,1.3776,9.6995,-0.4393,1.1316,-0.7739,-0.3268,-0.1278,0.1981,-0.1406,-3,-38.25,23.25,78.86,-81.52,-107.69,39826,2015-10-08 14:01:30:605,1
1.8387,8.2169,-0.5938,1.1778,9.7332,-0.2182,0.9057,-1.4026,-0.7154,0.1065,0.4197,-0.3217,-3.5,-38.25,22.25,83.87,-82.98,-100.5,39926,2015-10-08 14:01:30:705,1
2.4134,8.8298,0.1341,0.9542,9.76,-0.0545,1.4591,-0.9301,0.1886,0.0383,0.2557,-0.4879,-3.5,-39.25,21.25,88.97,-84.41,-93.27,40026,2015-10-08 14:01:30:805,1
2.0686,8.8107,0.4597,0.7321,9.7785,0.1237,1.3365,-0.9678,0.336,-0.1939,0.0021,-0.4389,-2.5,-39.75,20.75,90.41,-85.06,-90.84,40126,2015-10-08 14:01:30:905,1
1.3216,9.0597,0.0192,0.3882,9.796,0.2411,0.9334,-0.7363,-0.222,-0.0852,-0.0213,-0.5433,-2.25,-39.5,20,120.58,-87.33,-58.16,40226,2015-10-08 14:01:31:005,1
0.8811,9.4044,0.0575,0.0649,9.7995,0.3699,0.8162,-0.395,-0.3124,0.3792,0.1214,-0.3728,-1,-40.25,19.25,156.95,-87.16,-19.48,40326,2015-10-08 14:01:31:105,1
-0.4597,9.0788,-0.7661,-0.1725,9.8002,0.3103,-0.2872,-0.7214,-1.0764,-0.2642,-0.2898,-0.2258,1,-40.5,19.75,209.88,-87.93,29.07,40426,2015-10-08 14:01:31:205,1
-3.2753,9.845,-0.1532,-0.4496,9.7861,0.4479,-2.8257,0.0589,-0.6012,-0.115,-0.3409,0.0362,2.25,-39.5,19.75,209.88,-87.93,29.07,40526,2015-10-08 14:01:31:305,1
-3.3136,10.6111,-0.0383,-0.5192,9.7722,0.6364,-2.7944,0.8389,-0.6747,-0.2599,-0.3856,0.2237,4.25,-40.25,18.75,224.27,-85.2,39.21,40626,2015-10-08 14:01:31:405,1
-2.2984,10.1514,0.9002,-0.5158,9.7642,0.752,-1.7827,0.3872,0.1483,-0.2535,-0.2429,0.0597,3,-40.75,17.75,216.82,-84.66,34.45,40725,2015-10-08 14:01:31:504,1
-1.4365,9.3853,0,-0.5996,9.7745,0.52,-0.4478,-0.3521,-0.0145,-0.0043,0.245,0.0277,3.25,-39.5,18,230.89,-85.36,49.06,40825,2015-10-08 14:01:31:604,1
-0.6129,9.2129,0.4788,-0.5536,9.7798,0.4677,-0.1216,-0.5293,-0.0377,0.0234,0.0959,0.0959,3.25,-39,18.25,232.16,-85.76,49.8,40925,2015-10-08 14:01:31:704,1
-0.3065,9.347,0.1724,-0.5844,9.7787,0.4538,0.278,-0.4317,-0.2814,0.1342,0.1044,-0.0362,0.5,-40.25,18.75,228.44,-85.67,52.17,41025,2015-10-08 14:01:31:804,1
0.5938,9.5002,0.249,-0.5384,9.7816,0.4473,1.2471,-0.224,-0.2366,0.1257,0.179,-0.1044,1.25,-38.75,18.25,227.36,-85.68,51,41125,2015-10-08 14:01:31:904,1
1.8004,9.6917,-0.249,-0.5093,9.7879,0.3276,1.9841,-0.0196,-0.6532,-0.0128,-0.0256,-0.1044,1.75,-38.5,18.75,237.36,-86.46,57.25,41225,2015-10-08 14:01:32:004,1
1.0534,8.2935,0.3065,-0.4895,9.7889,0.3283,1.5047,-1.4379,0.2846,0.2514,0.0511,-0.1811,2.25,-37.75,18.75,238.78,-86.6,58.52,41325,2015-10-08 14:01:32:104,1
-0.0192,7.7189,-0.2682,-0.3637,9.7991,0.1247,0.4786,-1.9653,-0.4503,-0.1449,-0.2663,0.4133,3,-40.5,19,255.53,-87.75,71.08,41425,2015-10-08 14:01:32:204,1
-0.2873,8.734,0.1915,0.2621,9.7941,0.4214,-0.6643,-0.8685,0.5172,-0.5944,-0.3792,0.897,2.25,-38.75,19.75,238.63,-88.8,51.78,41525,2015-10-08 14:01:32:304,1
-1.3408,10.5345,0.4214,0.8553,9.7535,0.5557,-2.2638,0.7896,-0.1757,-0.5561,-0.6498,0.9076,1.25,-39.75,19.75,144.3,-85.99,-43.17,41625,2015-10-08 14:01:32:404,1
-1.8962,11.2049,0.9002,1.2201,9.704,0.7164,-3.1182,1.5017,0.1758,-0.1321,-0.6967,0.2855,-2.25,-38.25,17.75,127.73,-81.7,-59.58,41725,2015-10-08 14:01:32:504,1
-2.0111,11.6837,2.49,1.0098,9.7161,0.8654,-2.8818,1.955,1.6156,0.2109,0.5667,-0.3515,-2,-39.25,17,131.87,-81.81,-55.2,41826,2015-10-08 14:01:32:605,1
-1.6855,11.3772,1.8196,0.0238,9.788,0.6039,-1.7119,1.5495,1.208,0.4218,1.1547,-0.9183,-2.5,-38.25,17,135.79,-82.21,-49.41,41925,2015-10-08 14:01:32:704,1
-2.7581,10.9559,1.1109,-1.1704,9.7345,0.2023,-1.5247,1.3362,1.2019,0.7244,1.2911,-1.0674,-1.25,-37.75,17.25,227.71,-85.39,58.62,42025,2015-10-08 14:01:32:804,1
-2.9497,10.1323,-0.3065,-2.4419,9.4623,-0.82,-0.5078,0.6699,0.5135,0.6264,0.5433,-1.2293,-0.25,-39.75,19,241.71,-83.04,80.19,42125,2015-10-08 14:01:32:904,1
-2.2984,8.7149,-0.8236,-3.1524,9.2288,-1.0305,0.8539,-0.5139,0.2069,-0.6988,-0.0618,0.1364,3.5,-39.5,22.5,256.34,-71.91,110.83,42226,2015-10-08 14:01:33:005,1
1.743,6.7421,-0.8811,-2.3905,9.5057,-0.3124,3.9453,-2.4123,-0.4077,-0.3941,-0.7265,0.4112,5.75,-38.5,22.75,266.71,-72.49,102.15,42326,2015-10-08 14:01:33:105,1
4.7693,5.5162,-0.8236,-1.1406,9.7311,-0.4187,4.6021,-4.3402,-0.2073,0.8096,-1.0717,1.3678,6.25,-40.75,21.25,271.22,-79.38,95.9,42426,2015-10-08 14:01:33:205,1
3.735,8.1403,-1.9154,0.1911,9.7512,-1.0238,3.0841,-1.4002,-1.0639,0.6903,-0.963,0.9225,5.5,-41.5,20.5,5.64,-85.13,168.77,42525,2015-10-08 14:01:33:304,1
1.9154,8.2935,0.3065,0.7536,9.7719,-0.3357,0.791,-1.4577,0.4169,-0.277,-0.0064,0.0916,2.5,-39.5,22.75,26.6,-83.9,-169.43,42625,2015-10-08 14:01:33:404,1
1.5706,9.5385,-0.3639,1.096,9.7407,-0.2973,0.4578,-0.2275,-0.1884,-0.1214,0.1939,0.3089,-1.5,-37.75,21.5,77.21,-84.9,-111.49,42725,2015-10-08 14:01:33:504,1
2.0877,9.2703,-0.6321,1.2376,9.7238,-0.293,0.6777,-0.6833,-0.2817,-0.1193,0.1321,0.0937,-2.25,-39.25,21.5,82.49,-82.84,-105.07,42825,2015-10-08 14:01:33:604,1
1.9728,8.6574,-0.0766,1.3887,9.7069,-0.1316,0.5267,-1.107,0.0167,0.0383,0.2706,0.1278,-3,-40,21.25,90.15,-82.14,-96.81,42925,2015-10-08 14:01:33:704,1
2.5857,8.9447,-0.7661,1.4707,9.6909,-0.3058,1.1177,-0.7458,-0.4367,0.1129,0.2706,-0.1641,-3.75,-39,20.5,87.18,-81.34,-98.17,43025,2015-10-08 14:01:33:804,1
3.1987,8.1211,-0.3831,1.407,9.7039,-0.1588,1.7516,-1.574,-0.0999,-0.7542,0.5071,-0.4027,-4.5,-38.75,20.75,81.7,-81.18,-103.26,43125,2015-10-08 14:01:33:904,1
4.1755,8.5042,1.9728,1.3344,9.6834,0.7884,2.799,-1.1738,1.1909,-0.3941,0.2088,-0.2919,-4.75,-39.25,20.75,117.82,-80.78,-63.48,43225,2015-10-08 14:01:34:004,1
0.6321,8.9064,0.5555,0.8479,9.7466,0.6745,-0.081,-0.8502,-0.1309,-0.049,0.3388,-0.767,-4.75,-41,17.25,119.85,-83.07,-57.67,43325,2015-10-08 14:01:34:104,1
0.2873,9.0405,0.2298,0.3245,9.7665,0.825,-0.1486,-0.7288,-0.5059,-0.3835,-0.0298,-0.5092,-1.75,-41.75,16.75,129.96,-83.66,-51.5,43425,2015-10-08 14:01:34:204,1
-0.9194,9.4619,1.6664,-0.0635,9.7689,0.8574,-0.8565,-0.3857,-0.0694,-0.1768,-0.2152,-0.3238,-1,-41.75,16.5,174.46,-85.08,-3.32,43525,2015-10-08 14:01:34:304,1
-2.375,9.2895,0.4214,-0.3673,9.7807,0.6103,-1.9502,-0.5104,0.1175,0.6136,-0.2344,-0.2621,0.25,-41.25,16.25,206.36,-85.83,31.04,43625,2015-10-08 14:01:34:404,1
-2.6432,9.7683,0.1724,-0.6527,9.7794,0.3274,-1.6457,0.1613,-0.5572,-0.0639,-0.0618,0.0959,2.5,-41.5,17.75,245.96,-85.87,64.95,43725,2015-10-08 14:01:34:504,1
-2.8539,10.1323,-0.2682,-0.7277,9.7738,0.3383,-2.1262,0.3585,-0.6065,0.017,-0.2642,0.0597,1.5,-40,19.25,244.35,-85.73,63.36,43826,2015-10-08 14:01:34:605,1
-2.0111,9.6534,0.2298,-0.8156,9.7644,0.4021,-1.5403,-0.0152,0.0767,0.0128,-0.0831,0.1236,1.25,-38.5,18.75,237.83,-84.68,63.75,43926,2015-10-08 14:01:34:705,1
-0.8045,9.2703,0.5363,-0.8329,9.7612,0.4422,-0.5078,-0.5866,-0.0591,0.1555,-0.0618,0.1321,2.5,-39.75,19,241.01,-84.48,62.04,44026,2015-10-08 14:01:34:805,1
-0.4214,9.2895,0.498,-0.7836,9.765,0.4491,0.5346,-0.4946,0.0872,-0.0937,0.0426,0.2237,2.25,-39.5,18.75,239.06,-84.57,62.51,44126,2015-10-08 14:01:34:905,1
0.2682,9.2512,0.5555,-0.7292,9.7703,0.4242,0.9973,-0.5191,0.1313,0.0128,0.1001,-0.0085,2.5,-41,18.25,241.47,-84.89,62.07,44226,2015-10-08 14:01:35:005,1
0.747,9.2703,-0.4214,-0.665,9.7793,0.3051,1.6706,-0.4908,-0.8288,0.0085,-0.0383,0.0213,2.25,-40.5,19.25,241.06,-85.48,63.29,44326,2015-10-08 14:01:35:105,1
1.2258,8.7724,-0.1915,-0.5493,9.7854,0.3386,1.7751,-1.013,-0.5301,0.0767,-0.2322,-0.277,2.5,-40.75,19,246.01,-85.98,64.66,44426,2015-10-08 14:01:35:205,1
0.249,8.4467,0.1149,-0.5197,9.7861,0.3646,0.7687,-1.3393,-0.2497,-0.0724,-0.3388,0.0937,2.25,-39.25,18.75,237.88,-86.23,58.35,44525,2015-10-08 14:01:35:304,1
-1.3982,9.0214,-0.6321,-0.3386,9.797,0.2727,-0.9216,-0.7197,-0.9301,0.066,-0.6669,0.4155,4.25,-41.25,18.25,234.27,-86.77,47.55,44626,2015-10-08 14:01:35:405,1
-1.3599,10.3621,-0.5171,0.1587,9.8053,-0.0346,-1.0267,0.4414,-0.1551,0.6349,-0.7457,0.4538,4,-40.25,18.5,232.95,-87.97,43.84,44726,2015-10-08 14:01:35:505,1
-2.8347,10.477,1.0151,0.4723,9.7952,0.0297,-3.307,0.6818,0.9855,-0.1619,-0.473,0.6711,2.75,-38.5,19.5,96.14,-87.88,-96.35,44826,2015-10-08 14:01:35:605,1
-3.6775,11.0516,2.5857,0.4985,9.7852,0.4141,-4.176,1.2664,2.1716,0.0618,0.62,0.1236,1.25,-37.75,19.75,137.39,-86.21,-50.28,44926,2015-10-08 14:01:35:705,1
-2.7198,11.1666,1.4557,-0.1503,9.7971,0.4069,-2.5695,1.3695,1.0488,0.0554,1.6512,-0.6711,0.25,-37.75,19.5,168.53,-87.63,-12.35,45026,2015-10-08 14:01:35:805,1
-0.8811,11.4539,0.747,-1.3167,9.7161,0.1855,0.4357,1.7378,0.5615,-0.081,1.8003,-1.1292,-1.75,-37.25,19.25,239.15,-84.01,75.06,45125,2015-10-08 14:01:35:904,1
-2.9688,9.596,0.498,-2.407,9.5067,0.0205,-0.3703,-0.2555,0.8031,-0.5838,1.2144,-0.2067,0,-39.5,19.5,246.51,-76.36,91.49,45227,2015-10-08 14:01:36:006,1
0.0766,8.0828,0.9002,-2.1888,9.5516,0.3814,2.6485,-1.4114,0.2316,-0.6008,0.7031,0.8671,1,-40.25,19,246.33,-75.79,89.51,45326,2015-10-08 14:01:36:105,1
5.1906,7.853,-0.6129,-1.2086,9.7106,0.6428,6.3992,-1.8577,-1.2558,0.0043,-0.9779,0.7542,1,-40.75,17,235.41,-79.98,72.02,45426,2015-10-08 14:01:36:205,1
4.1755,7.1251,1.2833,-0.4383,9.743,1.0256,4.6138,-2.6179,0.2577,0.1406,-1.11,0.4581,-0.5,-41,15.5,207.87,-82.3,36.91,45526,2015-10-08 14:01:36:305,1
4.0606,7.9487,0.3831,0.3969,9.7721,0.7201,2.4203,-1.1317,0.5094,0.2983,-1.0376,0.2791,-1,-41.25,15,186.72,-84.6,12.26,45626,2015-10-08 14:01:36:405,1
2.873,9.1937,0.7087,1.0324,9.7448,0.3779,1.6852,-0.8472,0.4282,0.1129,-0.1811,0.2067,-1.5,-40.25,16.5,122.49,-84.33,-65.33,45726,2015-10-08 14:01:36:505,1
1.3599,8.6574,0.4788,1.1199,9.7312,0.4689,0.3421,-1.095,-0.1345,-0.3217,0.1662,-0.0256,-2.75,-39.75,17.75,113.91,-83.09,-70.52,45825,2015-10-08 14:01:36:604,1
1.6281,8.9639,0.1341,1.2356,9.7129,0.5513,0.4766,-0.8214,-0.5174,-0.0788,-0.0554,0.0511,-2.5,-40.5,18.5,121.83,-82.37,-65.68,45925,2015-10-08 14:01:36:704,1
2.0303,8.6957,-0.1532,1.394,9.6944,0.4955,0.6363,-0.9987,-0.6487,-0.0447,-0.017,-0.0064,-3.75,-42.25,17.75,116.38,-81.5,-68.56,46025,2015-10-08 14:01:36:804,1
2.0494,7.3358,1.8771,1.5304,9.649,0.8514,0.519,-2.3132,1.0257,-0.5028,0.0362,0.1513,-3.5,-41,18.25,122.78,-80.52,-65.71,46126,2015-10-08 14:01:36:905,1
2.1452,8.5808,1.3982,1.5899,9.6111,1.1264,0.5553,-1.0303,0.2718,-0.1598,0.2152,-0.2152,-3.25,-40.75,17.25,127.84,-79.71,-60.91,46225,2015-10-08 14:01:37:004,1
2.5283,9.0022,0.8619,1.5172,9.6083,1.2446,1.0877,-0.5678,-0.4593,0.1001,0.2131,-0.2514,-4.5,-42.75,16.5,132.4,-78.54,-54.68,46326,2015-10-08 14:01:37:105,1
2.2218,8.9064,1.4174,1.3182,9.6212,1.3658,0.9036,-0.7148,0.0516,-0.1917,0.2429,-0.3835,-4.25,-42.5,16.25,135.83,-78.46,-50.64,46426,2015-10-08 14:01:37:205,1
1.4557,8.8107,1.5514,0.9798,9.6641,1.3473,0.5333,-0.7768,0.4532,0.1641,0.0767,-0.6434,-3.75,-42.25,15.25,142.86,-78.93,-40.55,46525,2015-10-08 14:01:37:304,1
0.5938,8.8681,1.4557,0.608,9.7081,1.2468,0.2099,-0.8208,0.1172,-0.0469,0.1491,-0.2748,-3,-43,15,150.46,-81.81,-29.39,46626,2015-10-08 14:01:37:405,1
-1.1684,9.9024,1.3599,0.253,9.7082,1.3627,-1.4422,0.1998,-0.0382,0.2812,-0.0149,-0.0916,-2,-41.75,15.25,166.18,-81.44,-11.74,46726,2015-10-08 14:01:37:505,1
-0.9768,9.4619,1.1684,0.1299,9.7167,1.3187,-1.1067,-0.2548,-0.1503,-0.4069,-0.0831,0.0085,0.75,-42,14.5,177.49,-82.72,-7.19,46826,2015-10-08 14:01:37:605,1
-2.4134,9.6343,1.743,-0.0338,9.6921,1.494,-2.0415,0.1671,-0.3698,0.0511,-0.0362,0.13,1.25,-42.25,15.75,180.99,-81.56,-2.21,46925,2015-10-08 14:01:37:704,1
-1.9154,9.9024,0.1149,-0.2161,9.7441,1.0843,-1.6993,0.1583,-0.9694,0.5667,-0.0064,0.0937,1.75,-41.75,15.75,184.46,-81.45,2.57,47025,2015-10-08 14:01:37:804,1
-0.8619,9.5193,0.8236,-0.2196,9.7504,1.0253,-0.6424,-0.2311,-0.2017,0.1023,0.0554,-0.0554,1.75,-41.25,15.25,197.38,-83.53,11.27,47126,2015-10-08 14:01:37:905,1
0.0958,9.481,0.4788,-0.2176,9.754,0.9914,0.3177,-0.2327,-0.3004,-0.228,0.0746,-0.0128,0.5,-41.25,16.25,193.26,-83.94,13.17,47226,2015-10-08 14:01:38:005,1
0.7853,9.3853,0.8045,-0.2365,9.7464,1.0588,1.2023,-0.3966,-0.1909,-0.1726,0.0085,-0.0916,0,-39.5,16,191.15,-83.86,13.97,47326,2015-10-08 14:01:38:105,1
1.5897,9.2703,0.498,-0.2144,9.7441,1.085,1.6736,-0.6061,-0.4675,-0.0234,0.1449,-0.2045,0,-40,16.25,188.42,-83.41,10.78,47426,2015-10-08 14:01:38:205,1
1.3408,8.4467,0.5746,-0.1745,9.7437,1.096,1.5885,-1.2537,-0.3541,0.0852,0.1747,-0.1193,0.25,-40,15.75,188.45,-83.43,10.8,47526,2015-10-08 14:01:38:305,1
0.8619,8.5042,0.4214,-0.0794,9.7636,0.9149,1.0482,-1.2183,-0.4642,0.2535,-0.1023,0.0128,0.5,-39.5,15.75,189.96,-83.5,9.05,47626,2015-10-08 14:01:38:405,1
0,8.4467,1.245,0.2071,9.7649,0.8801,-0.2071,-1.3181,0.3648,0.2663,-0.6285,0.4922,1,-40.75,15.25,179.39,-85.14,-4.57,47726,2015-10-08 14:01:38:505,1
-0.8236,9.845,1.2067,0.7308,9.746,0.8077,-1.5544,0.099,0.399,-0.0874,-0.8756,0.5497,0,-40.75,16.5,153.11,-84.67,-32.61,47825,2015-10-08 14:01:38:604,1
-1.4365,10.4962,0.8811,1.1243,9.7166,0.7025,-2.5609,0.7796,0.1786,-0.3728,-1.0099,0.4879,-0.75,-40.75,17.5,131.86,-82.23,-58,47925,2015-10-08 14:01:38:704,1
-1.6664,11.6262,2.2027,1.2624,9.6815,0.919,-2.9288,1.9447,1.2836,0.1257,-0.1172,0.0192,-2,-39.5,17.5,132.76,-80.82,-55.23,48025,2015-10-08 14:01:38:804,1
-1.743,10.6111,1.5131,0.4887,9.7749,0.6189,-2.3413,0.9606,0.9391,0.6647,0.9353,-0.5497,-2,-40.25,17,134.73,-81.36,-52.32,48125,2015-10-08 14:01:38:904,1
-1.6472,10.2472,2.0686,-0.4317,9.7933,0.2751,-1.2359,0.4314,1.5852,0.2663,1.0397,-0.7116,-2.5,-39.75,18.5,141.47,-85.39,-38.3,48225,2015-10-08 14:01:39:004,1
-1.3791,11.0708,1.7238,-1.2435,9.7258,0.1821,-0.6191,0.825,0.8022,-0.4794,1.7129,-0.8586,0,-39,20.25,251.62,-84.11,82.53,48325,2015-10-08 14:01:39:104,1
-1.7238,9.9982,-0.5171,-2.3082,9.5296,-0.169,0.9363,0.5105,0.5947,0.9246,0.98,-1.3955,-0.5,-39,21,248.9,-82.64,81.67,48425,2015-10-08 14:01:39:204,1
0.8619,8.2935,0.0766,-2.4628,9.4923,-0.0278,3.6512,-1.3849,-0.4789,-0.5646,0.2365,0.0064,0.25,-39.25,21,246.38,-76.35,94.19,48525,2015-10-08 14:01:39:304,1
4.865,6.5314,-0.3256,-1.696,9.6584,0.0926,6.561,-3.1271,-0.4182,0.6647,-1.5276,-0.0874,2.25,-41.25,21,245.35,-75.81,87.72,48625,2015-10-08 14:01:39:404,1
6.0142,5.4205,0.1915,-0.4943,9.7918,-0.2176,6.1638,-3.9499,0.8306,0.3899,-0.816,1.3465,0,-42,20,262.3,-82.98,97.08,48725,2015-10-08 14:01:39:504,1
4.3862,7.5465,-2.6049,0.5225,9.715,-1.2312,3.8637,-2.1685,-1.3737,0.2748,-0.5071,0.9758,0,-41.25,22.25,353.86,-86.78,171.85,48826,2015-10-08 14:01:39:605,1
1.9537,8.0254,-0.498,1.5131,9.6242,-1.1207,0.4405,-1.5988,0.6227,-0.2791,0.0895,0.3494,-3,-38,26.75,45.43,-79.09,-145.04,48926,2015-10-08 14:01:39:705,1
2.5666,9.4619,-1.3791,1.8732,9.5706,-1.0319,0.6933,-0.1087,-0.3472,-0.4772,0.0682,0.2834,-4.75,-38.5,27,63.13,-78.13,-125.84,49026,2015-10-08 14:01:39:805,1
2.5091,9.481,-1.245,2.0315,9.5585,-0.8235,0.4776,-0.0775,-0.4215,-0.2024,0.0362,0.0469,-5.75,-37.5,26.5,70.8,-77.35,-113.53,49126,2015-10-08 14:01:39:905,1
2.6624,8.1594,-0.5746,2.141,9.5557,-0.5243,0.7752,-1.2607,0.1869,-0.1087,0.1065,-0.0256,-5.75,-37.25,25.25,78,-77.01,-109.5,49226,2015-10-08 14:01:40:005,1
2.4325,8.4851,0.0192,2.1993,9.554,-0.2324,0.2332,-1.069,0.2516,-0.4005,0.3025,0.1278,-7.25,-38.75,25,82.69,-77.01,-103.76,49326,2015-10-08 14:01:40:105,1
3.2753,8.8873,-0.2682,2.2031,9.5545,-0.1689,1.0722,-0.6672,-0.0993,0.0383,-0.0724,-0.0149,-5.75,-39,24.75,92.9,-76.99,-94.02,49425,2015-10-08 14:01:40:204,1
3.3327,8.5234,0.8811,2.1203,9.5648,0.4361,0.7803,-0.9907,0.5461,-0.5433,0.392,-0.4879,-6.25,-39.25,23.5,102.51,-77.07,-83.81,49526,2015-10-08 14:01:40:305,1
2.624,8.7915,1.2258,1.7434,9.6204,0.7602,1.0764,-0.8708,-0.8839,0.3643,0.3004,-0.424,-6.25,-40.75,21.25,116.32,-78.12,-67.87,49626,2015-10-08 14:01:40:405,1
1.2258,8.1211,1.7238,1.2856,9.6493,1.1872,-0.0597,-1.5281,0.5366,-0.669,0.4772,-0.4091,-6,-41.5,21.25,123.95,-79.84,-55.81,49726,2015-10-08 14:01:40:505,1
0.0192,8.5234,1.6089,0.9734,9.6686,1.3192,-0.9542,-1.1453,0.2897,0.0746,0.1385,-0.2088,-5,-42.75,19,141.64,-80.38,-36.42,49826,2015-10-08 14:01:40:605,1
-1.0534,9.4236,0.7087,0.7624,9.7084,1.1559,-1.8151,-0.3274,-0.915,-0.2748,0.0788,0.2535,-4,-43.5,17.5,142.96,-81.99,-35.57,49925,2015-10-08 14:01:40:704,1
-1.5897,9.9982,0.4214,0.7018,9.713,1.1556,-2.1831,0.2846,-0.6217,-0.1577,-0.1662,0.0874,-3.25,-44,18.25,149.12,-81.9,-31.23,50025,2015-10-08 14:01:40:804,1
-1.5706,10.3813,0.1532,0.7015,9.7224,1.0735,-2.2462,0.6481,-0.8365,0.3963,-0.1513,0.3686,-3,-44,18.5,150.3,-82.06,-29.52,50125,2015-10-08 14:01:40:904,1
-0.6321,10.0173,-0.5555,0.6269,9.7732,0.5122,-1.259,0.2442,-1.0677,0.5049,-0.1683,0.0831,-4,-42.25,18.5,145.08,-83.18,-34.52,50225,2015-10-08 14:01:41:004,1
0.747,9.7683,0.4405,0.6716,9.7692,0.532,0.0754,-8.0000E-04,-0.0915,-0.13,0.0085,-0.081,-5,-40.25,20.25,125.62,-85.26,-50.75,50325,2015-10-08 14:01:41:104,1
0.6512,9.098,0.1724,0.6992,9.7665,0.5451,-0.0671,-0.4961,-0.1812,0.1193,0.2067,0.0341,-5.75,-41.25,21,121.33,-84.78,-51.03,50425,2015-10-08 14:01:41:204,1
1.6281,9.1937,0.1532,0.8003,9.7595,0.5314,0.8233,-0.5657,-0.3719,0.0213,0.0192,0.0746,-6.5,-41.25,21,117.99,-84.45,-55.21,50525,2015-10-08 14:01:41:304,1
2.0686,9.2129,0.249,0.8555,9.7556,0.516,1.166,-0.5606,-0.2962,-0.098,-0.1747,-0.2088,-5.25,-41,20.5,118.13,-84.28,-58.24,50626,2015-10-08 14:01:41:405,1
2.3942,8.6191,1.3599,0.8813,9.7418,0.7004,1.5129,-0.9886,0.4297,-0.3025,-0.1896,-0.1534,-4.5,-42,20.5,120.14,-84.01,-58.95,50726,2015-10-08 14:01:41:505,1
1.9537,8.6957,-0.2298,0.8513,9.7519,0.5892,1.1024,-1.0561,-0.8191,0.1023,-0.3686,-0.0916,-3.5,-40.75,20,130.38,-83.56,-50.92,50826,2015-10-08 14:01:41:605,1
1.0918,8.7149,0.1149,1.0046,9.735,0.625,0.0871,-1.0201,-0.51,0.3111,-0.7073,0.2003,-4.25,-42.25,21.25,121.89,-83.82,-57.28,50926,2015-10-08 14:01:41:705,1
0.1724,9.0597,0.3639,1.2979,9.7094,0.4631,-1.1255,-0.6497,-0.0992,0.2663,-0.8458,0.669,-3.75,-42.5,21,115.71,-82.42,-66.91,51026,2015-10-08 14:01:41:805,1
-0.9194,10.5153,0.9194,1.8747,9.6206,0.3158,-2.5639,0.3857,-0.1887,-0.3409,-0.9566,0.6498,-3.75,-43,21.5,107.49,-79.77,-81.24,51126,2015-10-08 14:01:41:905,1
-1.5514,11.7412,1.7047,1.9306,9.6051,0.43,-3.3408,2.2139,1.3516,-0.2471,-0.4751,0.2834,-4.25,-41,21.5,109.95,-78.25,-80.3,51226,2015-10-08 14:01:42:005,1
-1.9154,11.3772,2.241,1.4352,9.6737,0.7278,-3.1272,1.5812,1.6658,0.0767,0.8139,-0.473,-4.75,-39.25,22,115.18,-79.45,-68.52,51326,2015-10-08 14:01:42:105,1
-2.0877,9.6726,0.4788,0.2199,9.7917,0.4947,-2.3077,-0.1191,-0.0158,0.6093,1.6171,-0.7329,-5.25,-39,21.75,133.69,-85.08,-39.57,51426,2015-10-08 14:01:42:205,1
-0.3831,10.9176,-0.3256,-0.5455,9.7913,0.0636,0.1624,1.1263,-0.3892,0.5348,1.6256,-0.8565,-5.25,-40.5,21,214.09,-87.79,49.76,51525,2015-10-08 14:01:42:304,1
-0.9385,10.0173,-0.4022,-1.2497,9.7213,-0.3253,0.3112,0.2961,-0.077,0.1683,0.4027,-0.4559,-5.25,-40.75,21,256.41,-83.63,101.61,51625,2015-10-08 14:01:42:404,1
0.5555,9.3278,0.996,-1.3878,9.703,-0.3106,1.9433,-0.3752,1.3066,0.7649,-0.5369,-0.0533,-4.5,-40,22,256.25,-81.69,101.11,51725,2015-10-08 14:01:42:504,1
4.5586,6.3015,0.5746,-0.7467,9.7778,-0.0861,5.3052,-3.4763,0.6607,-0.6072,-0.1683,1.0099,-4,-41,22,263.87,-81.58,109.36,51826,2015-10-08 14:01:42:605,1
5.2864,6.0142,0.4405,0.2539,9.8028,0.1031,5.0325,-3.7886,0.3375,0.0575,-0.9566,0.7308,-2,-41,22.5,218.44,-88.89,44.63,51926,2015-10-08 14:01:42:705,1
3.1987,8.102,-1.0918,1.1948,9.7272,-0.3521,2.0039,-1.6252,-0.7396,-0.1939,-0.5241,0.5859,-2,-42.25,21.5,84.44,-84.43,-101.04,52026,2015-10-08 14:01:42:805,1
2.1452,8.4467,0.4597,1.6504,9.6638,-0.2394,0.4948,-1.2171,0.6991,0.1917,0.0128,-0.0149,-3,-41.25,22,87.7,-81.55,-103.54,52126,2015-10-08 14:01:42:905,1
1.8962,8.7724,-0.4022,1.7451,9.646,-0.2833,0.1511,-0.8736,-0.1189,-0.1641,-0.0107,0.1449,-4,-40.75,24,92.03,-80.21,-98.25,52226,2015-10-08 14:01:43:005,1
2.241,9.1554,-0.5746,1.8764,9.622,-0.2566,0.4029,-0.6007,-0.2606,-0.0234,0.13,0.0724,-4.75,-41.25,23,89.51,-79.15,-97.74,52325,2015-10-08 14:01:43:104,1
2.0686,8.8107,-0.4022,1.9763,9.6022,-0.2503,0.1689,-0.849,-0.3051,-0.0724,0.0405,-0.0234,-6.25,-41.5,22.75,87.32,-78.69,-97.76,52425,2015-10-08 14:01:43:204,1
2.1261,8.0828,0.1149,2.0182,9.5964,-0.0741,0.1079,-1.5136,0.189,-0.3388,0.1534,0.1108,-7,-41.25,23.5,89.14,-78.28,-97.22,52525,2015-10-08 14:01:43:304,1
2.6815,8.5617,0.0383,2.0805,9.5834,0.0232,0.601,-1.0217,0.0151,0.2067,0.1704,-0.1406,-6.5,-40.5,22.5,98.82,-77.71,-87.59,52625,2015-10-08 14:01:43:404,1
2.3176,8.4851,1.245,2.0403,9.5772,0.5341,0.2773,-1.0921,0.7108,-0.3537,0.4453,-0.1939,-7,-41.5,21.75,99.98,-77.66,-87.32,52725,2015-10-08 14:01:43:504,1
2.6432,8.9256,1.4365,1.9631,9.5541,1.0178,0.6801,-0.6285,0.4187,-0.1044,0.3963,-0.2727,-7,-41.5,21.5,116.09,-77.06,-67.06,52825,2015-10-08 14:01:43:604,1
2.9497,9.4236,0.5746,1.5945,9.6006,1.207,1.3551,-0.177,-0.6324,0.3409,0.1534,-0.4687,-7,-42,19.75,121.38,-77.16,-60.52,52925,2015-10-08 14:01:43:704,1
1.5897,9.1554,0.8045,1.1239,9.6771,1.1227,0.3054,-0.4396,-0.2995,0.1214,-0.0831,-0.6264,-6.25,-42.25,17.25,130.13,-80.16,-47.9,53025,2015-10-08 14:01:43:804,1
0.6512,8.1211,1.5323,0.6459,9.7217,1.1143,0.0053,-1.6006,0.418,0.1385,-0.081,-0.277,-5.25,-43.25,17.25,133.29,-81.57,-41.79,53126,2015-10-08 14:01:43:905,1
-0.5363,8.0445,1.9537,0.2802,9.7234,1.2437,-0.8165,-1.6789,0.7099,-0.0256,-0.1321,-0.3686,-3.5,-42.75,18,146.39,-83.35,-26.21,53226,2015-10-08 14:01:44:005,1
-2.4708,10.0365,1.2067,-0.1137,9.7252,1.256,-3.1048,-0.461,-0.4799,-0.0383,-0.1534,0.2045,-2,-43.75,17.75,179.23,-82.89,5.35,53326,2015-10-08 14:01:44:105,1
-1.8196,10.0365,0.4214,-0.0761,9.7324,1.202,-1.7709,0.2652,-0.8328,-0.1129,0.0767,0.3089,-0.75,-42.75,16.75,181.2,-82.94,4.93,53426,2015-10-08 14:01:44:205,1
-1.3408,10.4004,0.4405,-0.0641,9.7489,1.0606,-1.2767,0.6515,-0.6201,0.1662,0.0213,0.1981,0,-41.75,17.75,182.85,-83.44,3.59,53525,2015-10-08 14:01:44:304,1
-0.6512,9.8067,0.9577,-0.1059,9.7628,0.9203,-0.6219,0.2545,-0.0201,0.0213,-0.0831,-0.1662,-0.75,-41.25,17.5,180.45,-84.29,3.73,53625,2015-10-08 14:01:44:404,1
-0.3831,9.232,0.5171,-0.2359,9.7794,0.6909,-0.0322,-0.4708,0.0178,0.2684,-0.0895,-0.1917,-1.25,-42.5,17.5,184.9,-84.9,9.05,53726,2015-10-08 14:01:44:505,1
0.1915,8.9256,0.8619,-0.2954,9.7833,0.6078,0.487,-0.8578,0.2541,0.0256,-0.0916,-0.0341,-1,-42.25,19,199.14,-86.09,24.94,53826,2015-10-08 14:01:44:605,1
0.7853,9.4619,0.2107,-0.2679,9.7906,0.4937,1.0532,-0.3287,-0.283,0.0426,-0.017,-0.0128,-0.25,-42.25,19,205.12,-86.51,28.36,53926,2015-10-08 14:01:44:705,1
1.2258,9.1937,0.1532,-0.2976,9.7944,0.3895,1.5234,-0.6007,-0.2363,-0.0085,-0.0746,-0.1321,-0.75,-41.5,19.5,211.65,-87.3,37.39,54026,2015-10-08 14:01:44:805,1
0.9768,8.5808,-0.0575,-0.2928,9.7919,0.4512,1.4048,-1.1709,-0.1438,0.1747,0.0149,-0.1491,0,-41.75,20,206.05,-86.54,29.2,54126,2015-10-08 14:01:44:905,1
0.5171,8.1977,0.6129,-0.1385,9.7912,0.5326,0.7269,-1.6693,0.1202,0.0298,-0.1321,0.2003,1.25,-42,19.5,202.48,-86.67,22.25,54225,2015-10-08 14:01:45:004,1
-0.0766,8.6766,0.498,0.2423,9.7907,0.5035,-0.3189,-1.1141,-0.0055,0.0085,-0.4623,0.6903,0.75,-41,18.75,190.17,-86.93,5.58,54326,2015-10-08 14:01:45:105,1
-0.6512,10.4004,-0.747,1.0491,9.7425,0.3931,-1.5102,-0.0878,-0.7152,-0.2088,-0.882,0.8501,-0.5,-40,19,145.68,-86.17,-38.7,54425,2015-10-08 14:01:45:204,1
-1.7813,11.3772,0.0958,1.5811,9.6669,0.4713,-3.4773,1.9019,-0.3181,-0.2344,-0.784,0.6882,-3.25,-41.75,19,116.79,-81.04,-71.8,54525,2015-10-08 14:01:45:304,1
-2.0494,12.0668,2.1835,1.464,9.6731,0.6772,-3.584,2.367,1.497,0.4112,0.1236,-0.1683,-5.5,-39.25,18.75,116.3,-79.79,-67.23,54625,2015-10-08 14:01:45:404,1
-1.3791,10.9176,2.2984,0.4699,9.7805,0.5391,-1.9659,1.1447,1.7359,0.718,1.1121,-1.0631,-5.75,-39.25,19,118.78,-84.1,-53.75,54725,2015-10-08 14:01:45:504,1
-1.3024,9.6534,1.2258,-0.7073,9.7811,0.0274,-0.7402,-0.1365,1.1178,0.7926,1.1931,-1.4125,-5.25,-40,20.25,150.28,-87.55,-14.55,54825,2015-10-08 14:01:45:604,1
-0.747,9.596,3.5817,-1.736,9.6437,0.3941,0.989,-0.0478,3.1876,-0.6541,1.4083,-0.8011,-3.5,-39.5,21.25,238.89,-80.96,81.15,54925,2015-10-08 14:01:45:704,1
-2.3942,9.8258,-0.8045,-2.5881,9.4483,-0.4489,0.1939,0.3775,-0.3556,0.0874,0.5348,-0.4687,-2,-40.75,19.25,242.47,-75.3,97.41,55025,2015-10-08 14:01:45:804,1
0.0383,9.5002,-0.2107,-2.4048,9.5028,-0.2913,2.5023,0.0748,-0.3318,-0.2131,-0.3238,0.1108,1.75,-41.75,20.5,253.76,-75.7,96.91,55125,2015-10-08 14:01:45:904,1
0.4405,7.8338,0.6321,-2.1021,9.5759,-0.2326,2.5427,-1.742,0.8646,0.5326,-1.0013,-0.3409,3,-43,20,258.61,-77.88,96.39,55226,2015-10-08 14:01:46:005,1
1.6855,6.6655,-0.1532,-1.5171,9.6511,-0.8511,4.0708,-2.6764,-1.1447,0.4836,-1.012,1.4296,3,-41.25,20.25,275.63,-77.96,112.71,55326,2015-10-08 14:01:46:105,1
2.6815,8.2552,-1.4365,-0.1036,9.6992,-1.4439,3.6512,-1.8097,-0.8314,0.0554,-0.5348,1.0802,3.5,-39.75,23.25,7.82,-81.51,175.9,55426,2015-10-08 14:01:46:205,1
1.3599,8.4276,-0.1149,0.4781,9.7357,-1.0758,0.8818,-1.3081,0.9609,-0.3174,0.1491,0.0874,0.5,-38.5,26,19.24,-81.49,-172.02,55526,2015-10-08 14:01:46:305,1
1.1492,9.1746,-1.3599,0.6902,9.7368,-0.943,0.4029,-0.6185,-0.5336,-0.2045,0.1896,0.2237,0,-38.25,25,43.61,-83.16,-143.8,55626,2015-10-08 14:01:46:405,1
1.1875,9.232,-1.4174,0.873,9.7206,-0.9586,0.3852,-0.4477,-0.361,-0.1406,0.0852,0.0874,-1,-37.25,24.5,48.78,-82.4,-137.68,55725,2015-10-08 14:01:46:504,1
1.494,9.1554,-0.7853,0.9993,9.7113,-0.9288,0.5925,-0.477,0.0149,0.0597,0.0937,0.0341,-1.5,-38,24.75,50.79,-82.21,-136.16,55825,2015-10-08 14:01:46:604,1
1.5323,8.5617,-0.0958,1.1224,9.7159,-0.7154,0.4598,-1.2304,0.5473,-0.1491,0.1662,0.017,-3.5,-38.25,23.5,57.45,-82.08,-126.26,55925,2015-10-08 14:01:46:704,1
2.2027,9.1363,-0.8428,1.2612,9.7029,-0.6587,0.9414,-0.5666,-0.184,-0.1342,0.2684,-0.1129,-3.25,-38.25,22.75,68.06,-81.66,-117.58,56026,2015-10-08 14:01:46:805,1
1.9728,8.9256,0,1.1993,9.7313,-0.1814,0.7735,-0.8058,0.1814,-0.6519,0.3878,-0.1513,-4,-37.5,22.25,82.96,-82.89,-98.6,56125,2015-10-08 14:01:46:904,1
1.992,9.5002,0.6512,1.0204,9.7495,0.2766,0.9716,-0.2493,0.3746,-0.2344,0.2152,-0.3366,-4.5,-39.75,20.5,91.32,-83.13,-90.5,56225,2015-10-08 14:01:47:004,1
0.7853,9.0788,0.498,0.6754,9.7767,0.3616,0.1099,-0.6979,0.1364,-0.473,0.326,-0.3941,-3.25,-40.75,18.25,107.91,-84.39,-71.53,56326,2015-10-08 14:01:47:105,1
0.3065,8.8107,0.6895,0.3463,9.7864,0.5262,-0.0398,-0.9757,0.1633,-0.1449,0.0213,-0.1939,-1.5,-40.75,18,147.88,-86.32,-33.35,56426,2015-10-08 14:01:47:205,1
0.8236,8.734,1.0918,0.1918,9.7845,0.6298,0.6318,-1.0505,0.4619,0.0682,-0.0383,-0.2088,0,-41.25,17.75,158.56,-86.16,-24.59,56526,2015-10-08 14:01:47:305,1
0.1341,8.102,0.1149,-0.1404,9.7928,0.5023,0.2745,-1.6908,-0.3874,0.4772,0.0021,-0.4517,0.5,-41,17.5,180.72,-86.25,-2.35,56626,2015-10-08 14:01:47:405,1
-1.1492,8.6957,-0.6129,-0.3228,9.7946,0.3643,-0.8264,-1.0988,-0.9772,0.2876,-0.3047,-0.049,1,-40.25,18,220.65,-87.15,41.55,56726,2015-10-08 14:01:47:505,1
-2.3942,10.3813,0,-0.4347,9.7851,0.4836,-2.0315,0.6337,-0.5562,-0.115,-0.4985,0.1726,1.5,-39.5,19,235.05,-87.05,53.94,56826,2015-10-08 14:01:47:605,1
-2.873,10.6494,0.2873,-0.4943,9.7774,0.5739,-2.3788,0.8721,-0.2866,0.1768,-0.3515,0.1896,2,-41,18.25,220.62,-85.57,40.74,56926,2015-10-08 14:01:47:705,1
-2.0111,9.8641,0.3256,-0.5399,9.7824,0.4276,-1.4712,0.0817,-0.102,0.1747,-0.0021,-0.0149,1.25,-40.25,18,223.01,-85.86,46.04,57025,2015-10-08 14:01:47:804,1
-1.3599,9.3853,0.2682,-0.6118,9.7792,0.4036,-0.7481,-0.394,-0.1354,-0.0724,0.1342,0.0447,1,-40.5,18,234.18,-85.9,58.34,57126,2015-10-08 14:01:47:905,1
-0.2298,9.2512,0.8619,-0.6034,9.7738,0.5281,0.4656,-0.4294,0.1287,-0.1278,0.0533,-0.0383,1.75,-38.5,18.25,227.92,-85.31,48.81,57225,2015-10-08 14:01:48:004,1
-0.2298,9.232,0.498,-0.5583,9.7798,0.462,0.3325,-0.5666,-0.1771,-0.0064,0.0937,0.0021,1.25,-38.5,18,225.99,-85.61,49.4,57325,2015-10-08 14:01:48:104,1
0.6704,9.8258,-0.1724,-0.4856,9.7888,0.3385,1.1626,0.0379,-0.5273,-0.1108,0.0959,-0.0724,2.25,-38.75,18.75,231.92,-86.28,51.85,57425,2015-10-08 14:01:48:204,1
2.1644,8.5425,0.2682,-0.4864,9.7855,0.4223,2.6507,-1.243,-0.1541,-0.1811,0.0383,-0.3878,1.75,-38.75,18.5,235.09,-86.71,54.56,57525,2015-10-08 14:01:48:304,1
1.3024,8.0637,-0.6321,-0.4818,9.7914,0.2592,1.5965,-1.6912,-0.9227,0.4027,-0.3302,0.0128,1.5,-38.5,18.25,233.34,-86.35,53.1,57625,2015-10-08 14:01:48:404,1
-0.3256,8.4659,-0.1724,-0.2924,9.8023,0.0053,-0.3006,-0.8586,0.1989,0.0511,-0.914,0.4815,1.5,-38.5,18.25,247.37,-87.09,69.84,57725,2015-10-08 14:01:48:504,1
-1.8387,9.8258,0.8045,0.1922,9.8047,-0.0322,-2.1267,0.3275,0.4536,0.4964,-1.0163,0.5092,2,-41,18.75,106.4,-89.62,-80.39,57826,2015-10-08 14:01:48:605,1
-2.7964,10.2089,0.5555,0.3534,9.8003,-0.0145,-3.0732,0.2554,0.8955,-0.3686,-1.0802,0.5603,2.5,-40.25,19.75,73.98,-88.35,-115.44,57926,2015-10-08 14:01:48:705,1
-3.6583,10.9367,1.9154,0.2999,9.7967,0.3239,-3.952,1.141,1.5579,-0.0511,0.2621,0.4027,3.25,-39.25,19.5,119.53,-87.71,-70.53,58026,2015-10-08 14:01:48:805,1
-3.486,11.1091,2.7773,0.0622,9.7905,0.5588,-3.475,1.3188,2.2114,0.0511,1.4658,-0.1577,1.25,-38.25,19,160.07,-86.99,-24.96,58125,2015-10-08 14:01:48:904,1
-4.2904,11.0325,1.0918,-0.9349,9.7575,0.2962,-3.3556,1.275,0.7955,-0.0703,1.9622,-0.4368,1.5,-37.25,18,241.98,-86.03,62.77,58226,2015-10-08 14:01:49:005,1
-2.4708,9.8067,1.7813,-1.9039,9.6196,-0.0955,-0.3754,0.2062,1.7427,1.0695,1.11,-1.2975,-0.25,-37.5,18.25,243.39,-83.36,74.92,58326,2015-10-08 14:01:49:105,1
-1.1875,8.849,0.4788,-2.2413,9.5277,-0.6083,3.1032,-0.832,0.0529,0.326,0.865,0.1896,-1.25,-36.5,18.25,255.57,-76.8,101.4,58426,2015-10-08 14:01:49:205,1
3.4668,8.2169,-1.5706,-1.8145,9.5851,-1.0021,5.0521,-1.2003,-0.5328,0.4005,0.1598,0.2535,-0.25,-36.25,19.5,260.83,-76.83,106.53,58526,2015-10-08 14:01:49:305,1
3.9265,7.7189,-2.0877,-1.237,9.6341,-1.3508,5.3005,-1.8969,-0.739,0.1001,-0.669,0.4602,0,-36,21.75,287.83,-78.29,126.05,58626,2015-10-08 14:01:49:405,1
2.6815,7.4699,-1.4174,-0.4438,9.728,-1.1573,3.1253,-2.2581,-0.26,-0.0682,-0.7244,0.7329,0,-36.75,24,304.4,-80.35,139.88,58726,2015-10-08 14:01:49:505,1
2.1452,8.7724,-0.6704,0.6642,9.732,-1.0089,2.0883,-0.9451,0.4336,0.0234,-0.0788,0.6093,-0.75,-39,23.75,25.25,-83.62,-156.92,58826,2015-10-08 14:01:49:605,1
1.8771,8.9256,-1.0726,1.121,9.6718,-1.1703,0.6798,-1.0776,-0.4878,0.1598,-0.1364,0.2812,-0.75,-38,24,49.83,-81.29,-138.73,58926,2015-10-08 14:01:49:705,1
2.1452,8.5808,-0.9768,1.3692,9.6618,-0.9725,1.0354,-1.0601,-0.0886,-0.2706,0.1023,0.1662,-3.5,-36,24.5,56.23,-79.87,-129.54,59025,2015-10-08 14:01:49:804,1
2.7964,8.6191,-0.6895,1.425,9.6756,-0.7227,1.3715,-1.0565,0.0332,-0.3622,0.2919,-0.2514,-5.25,-35,24,57.43,-80.18,-123.16,59125,2015-10-08 14:01:49:904,1
2.8347,8.4659,-2.3367,1.3006,9.6518,-1.1494,1.5174,-1.6953,-0.5356,0.6583,0.3302,-0.3579,-6,-35.25,23.25,63.45,-80.89,-116.86,59225,2015-10-08 14:01:50:004,1
3.0646,8.6766,-0.7278,1.0969,9.6996,-0.9403,2.0236,-0.9575,0.4935,-0.0724,-0.0362,-0.4964,-5.25,-38,23.25,49.39,-81.07,-129.73,59325,2015-10-08 14:01:50:104,1
0.4405,8.6766,0.0958,0.6931,9.7563,-0.7097,-0.2526,-1.0798,0.8055,-0.5305,0.2088,-0.49,-3.5,-37.75,23.5,43.66,-84.19,-135.68,59425,2015-10-08 14:01:50:204,1
0.9194,8.9639,-0.6129,0.3268,9.7862,-0.5427,0.5925,-0.8223,-0.0702,-0.4815,0.081,-0.3111,-1.25,-37,22.5,45.54,-84.76,-135.78,59525,2015-10-08 14:01:50:304,1
-0.1149,8.9639,0.9194,0.0894,9.8062,-0.0074,-0.2043,-0.8423,0.9268,-0.3302,-0.2173,-0.2642,0.25,-39,21,32.05,-87.24,-150.44,59625,2015-10-08 14:01:50:404,1
-1.0534,9.9599,0.4405,-0.0972,9.8009,0.3222,-0.6592,0.0434,-0.1694,-0.294,-0.0362,0.032,0.75,-39.5,19.75,196.53,-88.3,14.61,59725,2015-10-08 14:01:50:504,1
-0.4788,9.9407,0.9768,-0.1045,9.7808,0.7035,-0.1023,0.2734,0.4834,-0.2791,-0.0533,-0.0597,0.25,-38.25,19,190.88,-87.27,11.9,59825,2015-10-08 14:01:50:604,1
-4.9033,8.3893,1.0151,-0.4001,9.7496,0.978,-4.5032,-1.3603,0.0371,0.049,0.1406,0.0916,0.25,-40.75,17.75,198,-83.81,22.25,59925,2015-10-08 14:01:50:704,1
-2.9497,10.3813,-0.8428,-0.4648,9.7717,0.6839,-2.4849,0.6095,-1.5267,-0.2045,-0.0149,0.4836,0,-39.25,17.25,209.76,-84.87,35.65,60026,2015-10-08 14:01:50:805,1
-1.1109,10.0365,-1.0151,-0.1876,9.787,0.5911,-0.9233,0.2495,-1.6062,-0.3217,0.0703,0.3047,0,-40.75,17.75,195.44,-86.37,17.61,60126,2015-10-08 14:01:50:905,1
-0.0958,9.5768,0.1724,0.0371,9.7903,0.5651,-0.0423,-0.1952,-0.8387,0.1023,0.0341,0.1278,-1.75,-40.25,17.25,170.76,-86.69,-3.75,60226,2015-10-08 14:01:51:005,1
-0.0383,9.2895,0.1724,0.1178,9.7951,0.4602,-0.1157,-0.563,-0.3054,-0.0107,0.1683,0.1917,-4.25,-39,17.5,155.52,-87.22,-14.35,60326,2015-10-08 14:01:51:105,1
0.3639,9.3853,0.2298,0.2613,9.79,0.5078,0.1026,-0.4047,-0.2779,0.1321,0.0298,0.0959,-4.75,-37.5,17.5,146.88,-87.03,-20.78,60426,2015-10-08 14:01:51:205,1
0.5746,9.3661,0.7278,0.3247,9.786,0.5473,0.2686,-0.4018,0.1244,-0.1023,-0.0298,-0.0128,-4.75,-38,18.5,139.34,-86.44,-30.35,60526,2015-10-08 14:01:51:305,1
0.6129,9.1746,0.4405,0.335,9.7925,0.4051,0.3608,-0.5206,-0.0494,0.1662,-0.0362,-0.1214,-3.75,-36.75,18,136.2,-86.62,-35.92,60626,2015-10-08 14:01:51:405,1
0.6704,9.1937,-0.0766,0.318,9.7961,0.3258,0.4673,-0.6215,-0.2492,0.049,0.0405,0.0107,-3.75,-38.5,18,130.96,-87.06,-41.05,60726,2015-10-08 14:01:51:505,1
0.6895,9.1554,0.1341,0.3273,9.7982,0.2409,0.3431,-0.6236,-0.126,0.1364,-0.2663,0.0043,-4.5,-38.25,18,121.63,-87.44,-50.32,60826,2015-10-08 14:01:51:605,1
0.8236,9.0405,0.2682,0.3109,9.7988,0.2397,0.5127,-0.7583,0.0285,0.0724,0.0511,-0.1214,-4.75,-39.25,17.5,116.29,-87.68,-52.52,60926,2015-10-08 14:01:51:705,1
2.4708,9.3661,0.2298,0.3664,9.7966,0.2496,2.1703,-0.5454,-0.2323,0.1577,0.179,-0.1001,-3.5,-39.5,18.5,119.95,-87.61,-55.26,61025,2015-10-08 14:01:51:804,1
1.5514,8.7149,0,0.4068,9.7946,0.2674,1.4069,-1.1758,0.6469,0.147,-0.228,-0.0234,-2.25,-39.25,19.25,109.82,-87.65,-68.68,61125,2015-10-08 14:01:51:904,1
0.0383,8.8298,0.5363,0.5535,9.7889,0.2024,-0.4682,-0.9615,0.0914,-0.2748,-0.539,0.3153,-2.75,-38.25,19,97.41,-87.1,-79.3,61226,2015-10-08 14:01:52:005,1
-0.9768,9.6151,0.1724,0.7481,9.7772,0.1342,-1.9242,-0.1027,0.2113,0.2152,-0.9566,0.228,-2.25,-38.5,18.5,108.23,-85.77,-73.75,61325,2015-10-08 14:01:52:104,1
-2.0877,9.6917,1.6472,0.8041,9.7665,0.3739,-2.8918,-0.0747,1.2733,-0.2386,-0.8203,0.1278,-2.75,-38,18.5,102.43,-85.14,-78,61426,2015-10-08 14:01:52:205,1
-2.8347,10.7069,1.2641,0.7505,9.7587,0.6124,-3.6427,0.431,0.6326,-0.3174,-0.0128,0.3174,-1.25,-38,18.5,127.76,-84.71,-57.5,61525,2015-10-08 14:01:52:304,1
-3.0646,11.4156,1.3791,0.3701,9.7745,0.7023,-3.3389,1.6028,0.8683,1.1718,1.1121,-0.1854,-1,-39.5,16.75,150.53,-84.03,-32.7,61626,2015-10-08 14:01:52:405,1
-1.7813,10.7069,0.9385,-0.4176,9.7892,-0.4099,-1.3637,0.9177,1.3484,1.1611,1.2868,-1.1057,-2.25,-38.25,18.5,146.89,-88.72,-27.99,61725,2015-10-08 14:01:52:504,1
-2.3176,12.0093,-0.747,-1.5404,9.5919,-1.3391,-0.7772,2.4174,0.5921,-0.3089,1.1356,-0.9204,-2.25,-38.25,22.5,294.66,-79.56,135.94,61825,2015-10-08 14:01:52:604,1
-1.5897,9.5768,-0.0575,-2.3758,9.4488,-1.1168,0.786,0.1281,1.0593,-0.8735,0.1768,-0.3707,0.25,-36.25,24.75,285.08,-76.86,124.38,61925,2015-10-08 14:01:52:704,1
0.9577,8.5425,-1.9537,-2.394,9.4406,-1.1461,1.4746,-0.5342,-0.2329,0.6583,-0.3537,0.4794,2.5,-36.5,24.5,276.58,-74.82,112.62,62026,2015-10-08 14:01:52:805,1
3.2944,7.0294,-0.6129,-1.4621,9.6377,-1.0715,4.7566,-2.6083,0.4586,-0.1641,-0.3047,0.4538,3,-35.5,25.25,285.75,-74.96,121.07,62125,2015-10-08 14:01:52:904,1
3.5243,6.6463,-1.245,-0.6251,9.7259,-1.0896,4.1493,-3.0796,-0.1554,0.2109,-0.5092,1.0738,1.5,-37.25,25.5,311.08,-81.59,136.04,62226,2015-10-08 14:01:53:005,1
2.7964,7.5465,-0.7853,0.5483,9.6952,-1.3682,2.0949,-1.804,0.7553,0.2045,-0.5305,0.8224,0.5,-38.25,25.25,325.96,-82.64,150.16,62326,2015-10-08 14:01:53:105,1
1.8004,8.102,-1.6089,1.0008,9.6432,-1.4758,0.7997,-1.5412,-0.1331,-0.4879,-0.0511,0.1939,0,-37.5,26.25,39.04,-79.85,-150.55,62426,2015-10-08 14:01:53:205,1
1.6281,8.3701,-1.1109,1.2814,9.647,-1.2101,0.3466,-1.2768,0.0992,-0.2258,-0.0021,0.2407,-1.5,-37.5,27.25,57,-79.65,-133.36,62526,2015-10-08 14:01:53:305,1
2.2793,8.734,-1.7813,1.5102,9.6152,-1.1991,0.7691,-0.8811,-0.5822,-0.066,0.0256,0.049,-2.5,-36.5,27.5,60.87,-78.66,-128.45,62625,2015-10-08 14:01:53:404,1
2.4517,8.6957,-0.2873,1.6385,9.6131,-1.0368,0.6216,-1.0897,0.6345,-0.3047,0.0107,0.1236,-2.5,-36.25,25.5,64.54,-78.49,-126.16,62725,2015-10-08 14:01:53:504,1
2.9113,8.849,-0.6129,1.6851,9.6252,-0.8288,1.0156,-0.8528,0.5415,-0.1044,0.3814,-0.3835,-4.25,-37.5,25,70.63,-78.96,-116.19,62825,2015-10-08 14:01:53:604,1
2.7773,8.9447,1.2067,1.3594,9.7082,-0.2701,1.4179,-0.7635,1.4768,-0.0043,0.3963,-0.6136,-4.5,-38,25,76.67,-80.46,-108.63,62925,2015-10-08 14:01:53:704,1
1.1109,8.9639,-0.3831,0.7816,9.7723,-0.2474,1.9756,-0.8767,0.6115,0.4282,0.0959,-0.7947,-3.75,-38.25,23.5,80.62,-82.75,-100.99,63026,2015-10-08 14:01:53:805,1
0.0192,8.4851,0.5938,0.3427,9.7985,-0.2042,0.0979,-1.1794,0.4532,-0.3366,-0.0341,-0.5816,-2,-39,22.5,72.81,-85.2,-107.56,63126,2015-10-08 14:01:53:905,1
-1.3024,9.4619,0.1915,-0.1094,9.8054,0.1133,-0.7333,-0.1328,-0.324,-0.098,-0.1491,-0.2045,0.25,-39.25,21.75,220.15,-89.53,40.69,63227,2015-10-08 14:01:54:006,1
-0.747,10.4387,0.1341,-0.2287,9.7988,0.3198,-0.7098,0.5059,-0.3773,-0.588,-0.0852,0.2173,1.5,-38.5,21.5,218.34,-87.7,35.57,63326,2015-10-08 14:01:54:105,1
-3.0837,9.596,-0.0383,-0.367,9.7805,0.6148,-2.7167,-0.1845,-0.6532,-0.2194,-0.4261,0.0895,0.75,-39.75,21.25,209.68,-85.81,30.83,63426,2015-10-08 14:01:54:205,1
-3.5817,9.6343,0.2107,-0.5279,9.7663,0.7149,-3.0539,-0.132,-0.5042,0.4176,-0.2237,0.4581,1.75,-39,19.5,216.28,-84.8,36.44,63526,2015-10-08 14:01:54:305,1
-1.0151,10.2089,-0.0766,-0.27,9.7962,0.3628,-0.6111,0.3169,-0.4011,0.1513,-0.0746,0.4879,1.75,-40.25,19,221.12,-86.79,39.49,63626,2015-10-08 14:01:54:405,1
-0.7087,9.6726,0.3448,-0.1725,9.8009,0.2865,-0.5945,-0.3006,0.0726,0.1321,-0.0937,0.0788,0.25,-40,19.75,209.17,-88.05,31.06,63726,2015-10-08 14:01:54:505,1
-0.249,9.3661,0.4597,-0.1485,9.7983,0.3761,-0.1005,-0.4322,0.0836,-0.0959,-0.0767,-0.1491,0,-41.75,19.75,198.98,-87.78,20.49,63826,2015-10-08 14:01:54:605,1
0.0575,9.3087,0.5363,-0.1521,9.7985,0.3702,0.2095,-0.4898,0.1661,0.1641,0.0852,-0.098,-0.25,-41,20,200.66,-87.66,22.33,63926,2015-10-08 14:01:54:705,1
0.1724,9.347,0.0958,-0.1688,9.8022,0.2432,0.3412,-0.4552,-0.1474,-0.0213,0.0511,-0.0341,0,-39.5,19.5,210.2,-88.11,32.04,64026,2015-10-08 14:01:54:805,1
0.1724,9.0405,0.3065,-0.1978,9.8023,0.2131,0.3702,-0.7618,0.0933,-0.0937,0.0256,-0.0192,-0.25,-39.25,19.75,220.54,-88.31,42.67,64126,2015-10-08 14:01:54:905,1
0.5555,9.5385,0.5363,-0.1571,9.8024,0.2435,0.7317,-0.283,0.1588,0.0959,0.0362,-0.1172,0,-39,19.5,220.71,-88.3,42.86,64225,2015-10-08 14:01:55:004,1
0.8236,9.6534,-0.0575,-0.161,9.8039,0.1649,0.7739,-0.2846,-0.2224,-0.0937,0.032,-0.1683,0.75,-40.5,20,216.04,-88.61,34.8,64325,2015-10-08 14:01:55:104,1
1.3216,9.4044,0.2873,-0.1714,9.8007,0.295,1.5888,-0.4537,-0.0461,0.0874,0.13,-0.3089,0.5,-40.75,20,225.26,-88.65,44.3,64426,2015-10-08 14:01:55:205,1
0.6704,8.6574,-0.5746,-0.2689,9.7999,0.2437,1.0637,-1.0659,-0.9609,-0.0618,-0.3963,-0.0724,0,-39.75,19.5,225.28,-88.03,48.07,64528,2015-10-08 14:01:55:307,1
-0.5171,8.9447,-0.0766,-0.228,9.7989,0.3173,-0.128,-0.9873,-0.4586,-0.1726,-0.5284,0.2194,0.25,-39.75,18.5,215.13,-87.43,38.22,64625,2015-10-08 14:01:55:404,1
-0.3448,9.347,1.0534,0.0386,9.7939,0.4985,-0.3599,-0.4463,0.541,0.2237,-0.7585,0.2919,1.25,-40.75,18.5,187.25,-87.02,5.04,64725,2015-10-08 14:01:55:504,1
-1.4174,9.3661,0.8045,0.026,9.7962,0.4519,-1.5583,-0.7748,0.1418,0.0874,-0.4985,0.147,2.5,-41.75,18.25,182.6,-87.41,-6.6,64826,2015-10-08 14:01:55:605,1
-2.2793,9.6534,0.6321,0.16,9.7948,0.4541,-2.4393,-0.1414,0.1779,-0.0916,-0.2237,0.3814,1.75,-40.25,18.75,183.35,-87.55,-2.36,64925,2015-10-08 14:01:55:704,1
-2.988,11.0133,1.2067,0.2931,9.7805,0.6531,-3.2811,1.2328,0.5535,-0.1321,0.2919,0.5326,1.5,-41,19,164.64,-86.18,-23.51,65025,2015-10-08 14:01:55:804,1
-1.7813,11.8178,2.2601,0.2022,9.7596,0.9384,-1.9835,2.0582,1.3217,-0.0298,0.8693,-0.3835,0.5,-40,18.25,172.59,-84.38,-12.16,65125,2015-10-08 14:01:55:904,1
-2.739,9.9599,1.245,-0.834,9.7581,0.504,-2.1923,0.1251,0.7027,0.3153,1.3848,-0.9609,-1.5,-42.25,17.75,226.18,-84.3,58.85,65225,2015-10-08 14:01:56:004,1
-2.1835,9.347,3.3327,-1.7947,9.6293,0.4754,-0.6449,0.2966,2.4471,-0.4538,2.056,-0.1683,-1.75,-41.75,19,233.23,-82.59,72.2,65325,2015-10-08 14:01:56:104,1
-3.9265,9.5193,-0.0958,-2.4202,9.497,-0.3453,-0.7754,-0.0585,0.0103,0.9417,0.1939,-0.4027,-0.5,-40,18.5,245.18,-76.55,91.61,65426,2015-10-08 14:01:56:205,1
-0.249,8.5617,0.498,-2.1097,9.5693,-0.3849,2.0123,-0.1581,2.0339,0.5752,-0.539,0.294,0,-41.75,20,253.61,-76.33,103.32,65526,2015-10-08 14:01:56:305,1
5.2098,5.363,-0.0192,-0.7477,9.7698,-0.4034,5.9574,-4.4068,0.3842,-0.017,-0.9055,1.1505,-0.75,-41,21,269.62,-82.47,107.29,65626,2015-10-08 14:01:56:405,1
4.6352,6.9528,-0.5363,0.5524,9.7657,-0.7039,4.0828,-2.813,0.1676,-0.1044,-0.6498,1.1292,-1.5,-41,22.75,357.66,-86.58,-179.6,65726,2015-10-08 14:01:56:505,1
3.5626,8.7915,-1.3982,1.4245,9.6633,-0.8729,1.5363,-0.7431,0.3352,-0.3004,-0.049,0.5454,-3.5,-39.25,23.75,66.46,-80.19,-121.5,65826,2015-10-08 14:01:56:605,1
2.5666,8.849,-1.0726,1.7335,9.617,-0.824,0.7911,-0.7228,-0.2952,-0.0597,-0.1129,0.147,-5.5,-38.5,24.75,68.61,-79.08,-115.93,65925,2015-10-08 14:01:56:704,1
2.6432,8.6766,-0.5363,1.9495,9.5832,-0.7295,0.6598,-0.9035,0.1567,-0.0362,-0.0362,0.1981,-6.25,-39.5,25.5,70.16,-78.39,-113.59,66026,2015-10-08 14:01:56:805,1
2.3176,8.1211,-1.1301,2.09,9.5564,-0.6905,0.2276,-1.4353,-0.4396,-0.4431,0.081,0.2109,-6.25,-38.25,25.25,77.95,-77.03,-108.28,66125,2015-10-08 14:01:56:904,1
2.1644,7.4891,-0.8428,2.331,9.521,-0.2967,0.1277,-2.2496,-0.6493,-0.4581,0.2876,0.2493,-5.75,-38.75,24.5,86.78,-76.5,-101.13,66225,2015-10-08 14:01:57:004,1
3.486,8.6574,1.2641,2.6082,9.4512,0.2085,0.8778,-0.7937,1.0556,-0.4879,0.0192,0.2791,-6.25,-39.5,23.25,105.31,-74.53,-85.43,66325,2015-10-08 14:01:57:104,1
4.3287,9.5002,0.3831,2.7229,9.4166,0.2906,1.297,0.0259,0.355,-0.0746,0.1619,-0.081,-8.75,-38.5,20.75,100.78,-73.79,-83.91,66426,2015-10-08 14:01:57:205,1
3.4477,9.3661,0.0766,2.4757,9.4774,0.4696,0.1626,-0.1958,-0.45,-0.0256,0.1726,-0.5689,-8.5,-39,19.75,105.91,-75.11,-79.26,66526,2015-10-08 14:01:57:305,1
1.8004,9.2129,0.6704,1.9374,9.5819,0.7776,0.3592,-0.6342,0.5296,-0.7031,0.2173,-0.8224,-6.25,-41,18.75,117.18,-77.71,-68.13,66625,2015-10-08 14:01:57:404,1
1.4365,9.232,0.5555,1.1242,9.6939,0.9673,-0.1397,-0.5537,-0.3722,-0.1726,0.1342,-0.5284,-4,-42,18.25,125.46,-79.45,-57.21,66725,2015-10-08 14:01:57:504,1
-0.3639,8.5617,2.0494,0.5592,9.7243,1.1384,-0.9231,-1.1626,0.9111,0.1044,0.2131,-0.7009,-1,-42,17.5,157.2,-82.57,-26.16,66825,2015-10-08 14:01:57:604,1
-4.5777,8.7915,1.8771,-0.1723,9.7627,0.911,-4.4054,-0.9712,0.9661,0.2642,0.0511,-0.3686,1.75,-41.25,17.75,194.12,-84.58,10.71,66925,2015-10-08 14:01:57:704,1
-4.7692,10.1706,0.4214,-0.8206,9.7298,0.9102,-5.3359,0.0118,-0.7155,-0.2642,-0.0533,0.2812,4.25,-43.25,17.5,223.23,-82.82,42.04,67026,2015-10-08 14:01:57:805,1
-3.0454,9.5193,0.1149,-0.9312,9.7124,0.9864,-2.2982,-0.1361,-0.8003,-0.0937,0.2301,0.0383,4,-42.75,17.25,223.3,-82.05,43.35,67125,2015-10-08 14:01:57:904,1
-1.1301,9.5577,1.1684,-1.0847,9.6773,1.1596,-0.8,-0.0656,0.6644,-0.032,-0.115,-0.2855,4.25,-41.25,16.5,221.91,-80.68,43.09,67226,2015-10-08 14:01:58:005,1
-0.8619,9.232,0.9768,-1.195,9.6769,1.0492,0.1607,-0.5023,-0.0149,-0.1342,0.3345,-0.0213,3.5,-42,16.75,225.95,-80.67,48.72,67326,2015-10-08 14:01:58:105,1
-1.0343,9.0214,0.9002,-1.2022,9.6795,1.0159,0.1679,-0.7156,-0.2306,0.0128,0.2258,0.1704,3.25,-40.5,16.75,224.87,-80.76,49.8,67426,2015-10-08 14:01:58:205,1
-0.5171,9.3278,0.9002,-1.0365,9.6966,1.0356,0.8091,-0.5359,-0.0082,-0.0618,-0.032,0.1129,2.25,-41,16.75,220.67,-81.16,47.57,67526,2015-10-08 14:01:58:305,1
-0.3831,9.4236,0.8236,-0.9464,9.6974,1.111,0.5633,-0.293,-0.2682,-0.0724,-0.1939,0.0149,2.25,-41,16,221.65,-81.41,45.03,67625,2015-10-08 14:01:58:404,1
0.1724,9.3087,1.1109,-0.8752,9.7004,1.143,1.0476,-0.3918,-0.0321,-0.0788,-0.179,-0.179,1.75,-41.75,16,213.3,-81.4,38.26,67726,2015-10-08 14:01:58:505,1
0.7278,9.098,1.0918,-0.8526,9.6948,1.2059,1.6511,-0.6178,-0.2378,0.0724,-0.1704,-0.13,2.25,-41.75,15.5,211.85,-81.33,36.43,67825,2015-10-08 14:01:58:604,1
0.0383,8.5808,0.2682,-0.8256,9.715,1.0521,0.8639,-1.1342,-0.784,0.0511,-0.5561,-0.0383,3.25,-43,14.75,213.69,-81.34,35.26,67926,2015-10-08 14:01:58:705,1
-0.9577,8.5042,0.9002,-0.6069,9.7317,1.0467,-0.3507,-1.2275,-0.1464,0.2599,-0.5667,0.3558,3.5,-41.5,15.25,219.22,-82.33,37.6,68026,2015-10-08 14:01:58:805,1
-1.3216,9.845,0.249,-0.0803,9.7839,0.6623,-1.2413,0.061,-0.4134,0.4368,-0.7649,0.6179,4,-41.5,15.5,215.55,-83.72,26.47,68126,2015-10-08 14:01:58:905,1
-2.7581,11.1857,1.9345,0.2845,9.7777,0.6969,-3.0426,1.408,1.2376,-0.2663,-0.326,0.2365,2.25,-40,17.5,165.29,-87.06,-22.68,68225,2015-10-08 14:01:59:004,1
-4.1563,10.8218,2.6432,-0.356,9.7684,0.7891,-3.8004,1.0534,1.8541,0.0831,0.6051,-0.4155,1.5,-40.25,17.25,174.72,-85.33,-12.98,68325,2015-10-08 14:01:59:104,1
-4.0989,9.5768,1.6664,-1.363,9.6909,0.6322,-2.7358,-0.1141,1.0342,0.2365,1.8791,-1.289,1.75,-40.5,17,221.74,-83.37,45.21,68426,2015-10-08 14:01:59:205,1
-3.4093,10.6494,-0.3448,-2.7336,9.418,-0.006,-0.6758,1.2315,-0.3388,0.5689,1.3231,-1.2293,2.75,-40.25,18,241.62,-77.15,77.49,68525,2015-10-08 14:01:59:304,1
-2.1835,9.7109,0.4214,-3.1103,9.3002,-0.0529,0.9268,0.4107,0.4743,-0.8543,0.8522,0.1662,3.75,-39,19.25,247.78,-71.33,93.34,68625,2015-10-08 14:01:59:404,1
0.0383,8.983,-1.5514,-2.639,9.4446,0.0741,3.6452,-0.8159,-1.9113,-0.4559,0.0405,0.8671,5,-40,18,244.47,-72.57,84.83,68726,2015-10-08 14:01:59:505,1
6.1675,6.9528,-0.498,-1.5213,9.6879,0.001,7.7557,-2.7181,-1.2183,0.6946,-1.0333,0.882,3.25,-41.25,18,244.84,-77.36,81.83,68826,2015-10-08 14:01:59:605,1
3.7733,5.8802,-0.9577,-0.4193,9.78,-0.5877,4.2484,-4.376,-0.1559,1.0077,-0.7159,1.2698,2.5,-40.25,18.75,268.81,-83.24,94.09,68926,2015-10-08 14:01:59:705,1
3.869,8.8873,-3.1603,0.8328,9.6321,-1.6433,2.5501,-0.7521,-1.3864,0.2024,-0.2578,0.4751,0.75,-39.5,20.75,33.71,-81.15,-158.48,69026,2015-10-08 14:01:59:805,1
2.0111,8.5808,-2.5857,1.1787,9.5997,-1.6206,0.7346,-1.1594,-0.9007,-0.277,-0.0575,0.1619,-1.75,-36.5,25.25,40.81,-78.61,-145.95,69125,2015-10-08 14:01:59:904,1
2.375,8.9447,-1.5897,1.4868,9.5896,-1.4141,0.8882,-0.6449,-0.1757,-0.1257,0.1683,0.0362,-3.25,-36,27,46.66,-78.32,-138.97,69226,2015-10-08 14:02:00:005,1
3.1029,8.6383,-1.4174,1.6058,9.5912,-1.2651,1.2289,-0.9146,-0.0182,-0.2471,0.1577,-0.228,-5,-36.75,25.5,52.66,-77.93,-130.71,69326,2015-10-08 14:02:00:105,1
3.2561,8.4276,-0.8811,1.4759,9.6433,-0.9999,1.5504,-1.254,0.7509,-0.0234,0.1981,-0.6029,-5.5,-36.75,24.5,59.46,-78.99,-123.7,69426,2015-10-08 14:02:00:205,1
1.9345,7.9487,0.5746,0.9576,9.7405,-0.6131,0.613,-1.7726,1.3218,-0.5454,0.6008,-0.8437,-3.75,-37.5,24,56.15,-81.79,-125.13,69525,2015-10-08 14:02:00:304,1
1.992,8.6191,0.6895,0.2271,9.7991,-0.3105,0.6733,-1.1573,1.2645,-0.1555,0.3132,-0.5944,-1,-37.5,22.75,52.08,-85.81,-130.82,69626,2015-10-08 14:02:00:405,1
0.1724,8.8298,-0.8811,-0.254,9.7951,-0.402,-0.8074,-1.0411,-0.2066,-0.1257,0.5369,-0.5049,-0.75,-38,21.5,333.69,-87.35,158.35,69725,2015-10-08 14:02:00:504,1
-1.3599,9.5768,0.0766,-0.4658,9.7941,-0.1692,-0.8746,-0.2168,0.217,-0.2791,0.032,-0.0234,1,-39.25,21.25,324.7,-87.22,147.71,69826,2015-10-08 14:02:00:605,1
-1.1684,10.2089,-1.0151,-0.5939,9.786,-0.2268,-0.5827,0.4797,-0.8312,-0.7031,0.0213,0.0597,1,-38,20.5,284.38,-86.57,107.7,69926,2015-10-08 14:02:00:705,1
-2.1069,9.0022,0.1341,-0.8373,9.766,0.3067,-0.8556,-0.4853,0.262,-0.2024,-0.3537,-0.1704,1.25,-38.5,20.25,247.41,-85.38,72.61,70026,2015-10-08 14:02:00:805,1
-4.9033,8.7149,-0.3639,-0.9139,9.7482,0.554,-3.9977,-1.0342,-0.9165,-0.0852,-0.3601,0.2919,2.25,-39,18.75,243.37,-84.78,69.88,70125,2015-10-08 14:02:00:904,1
-0.498,11.6646,-0.5746,-0.5386,9.7804,0.4738,-0.0486,1.8785,-1.0245,0.115,0.0043,0.9076,1.25,-38.5,18.25,230.19,-84.3,56.14,70226,2015-10-08 14:02:01:005,1
-0.0575,10.8601,0.0766,-0.1477,9.8007,0.3072,-0.0822,0.6571,-0.5753,0.1257,-0.326,0.0533,-1,-37.25,18.25,225.59,-85.81,48.66,70326,2015-10-08 14:02:01:105,1
-0.5555,8.9639,0.5555,-0.2482,9.7993,0.2872,-0.403,-0.8929,0.364,-0.0107,-0.1726,-0.1555,-1.75,-36.25,18,201.04,-88.01,25.68,70426,2015-10-08 14:02:01:205,1
0.0383,8.983,0.5938,-0.245,9.798,0.3303,0.2833,-0.815,0.2635,-0.0937,0.0021,0.1193,-2.25,-37.75,18.75,215.75,-87.69,44.83,70526,2015-10-08 14:02:01:305,1
0.1915,9.3087,0.8236,-0.1407,9.7991,0.3587,0.4281,-0.433,0.3691,0.0788,0.0085,0.0149,-1.5,-37.25,19.5,208.31,-87.6,36.57,70626,2015-10-08 14:02:01:405,1
0.3256,9.347,0.4214,-0.0498,9.8013,0.3191,0.3543,-0.5108,0.208,0.1364,0.1896,0.0618,-1.25,-36.25,18.75,194.34,-87.75,21.42,70726,2015-10-08 14:02:01:505,1
0.8236,9.5768,0.2873,0.0456,9.8036,0.2417,0.778,-0.2268,0.0456,0.0618,0.1214,-0.0043,-2,-38.25,19.25,176.48,-88.39,2.3,70826,2015-10-08 14:02:01:605,1
1.4557,9.3661,0.3448,0.0746,9.8038,0.2255,1.1626,-0.3993,0.2802,0.1641,0.1662,0.0639,-1.75,-38,19.25,164.74,-88.64,-9.98,70925,2015-10-08 14:02:01:704,1
2.2793,9.0022,-0.249,0.145,9.8037,0.1931,2.2074,-0.6285,-0.1812,-0.1065,0.0895,-0.1875,-2.25,-38.5,19.25,156.77,-88.61,-18.31,71025,2015-10-08 14:02:01:804,1
1.8004,7.4124,0.2873,0.2769,9.7893,0.5122,1.3084,-2.3377,-0.8599,-0.0852,0.1044,0.1342,-2.75,-37.5,19.5,141.51,-88.34,-34.72,71125,2015-10-08 14:02:01:904,1
0,8.2935,0.2107,0.6763,9.7672,0.5615,-1.0651,-0.8608,-0.4842,0.473,-1.0099,0.4666,-3.25,-38,18.25,141.94,-86.33,-36.5,71225,2015-10-08 14:02:02:004,1
-0.9194,11.1666,0.1724,1.0838,9.746,0.1064,-2.0494,1.3496,-0.3525,-0.5902,-1.1143,0.7904,-4,-38,18,94.57,-84.59,-84.09,71325,2015-10-08 14:02:02:104,1
-1.9537,11.4156,1.2641,1.2061,9.7232,0.4181,-3.1924,1.6957,0.8636,-0.1577,-0.5582,0.017,-3.75,-38.5,18.75,105.95,-82.78,-79.54,71425,2015-10-08 14:02:02:204,1
-3.371,11.4156,1.4748,0.6185,9.7772,0.4416,-4.0813,1.6447,1.0324,0.2407,0.5582,-0.5007,-4.5,-38.25,18.75,115.52,-84.3,-62.64,71525,2015-10-08 14:02:02:304,1
-1.4748,11.4156,1.9345,-0.4535,9.7962,0.0074,-1.2941,1.6127,1.7305,1.1398,1.191,-1.2613,-3.5,-38.25,18.75,163.17,-87.82,-9.09,71625,2015-10-08 14:02:02:404,1
-1.0151,11.3006,-0.2107,-1.7591,9.6241,-0.6732,0.7631,1.6766,0.7307,0.1214,1.3678,-1.2144,-1.75,-37.75,19.75,270.9,-81.7,112.61,71725,2015-10-08 14:02:02:504,1
-5.3822,8.8298,-1.3408,-3.0721,9.2453,-1.1211,-1.8696,-0.0516,-0.258,0.0937,0.4453,-0.4389,0.25,-37.5,21.5,262.26,-76.77,108.98,71825,2015-10-08 14:02:02:604,1
-2.7007,9.73,-0.0575,-2.9429,9.2924,-1.0774,0.5096,1.0631,0.8568,-0.049,0.1662,0.4495,3,-37.5,23,263.59,-70.34,110.23,71926,2015-10-08 14:02:02:705,1
3.5626,6.0142,1.1109,-2.0336,9.5503,-0.909,6.4354,-3.2489,1.6622,-0.2024,-1.1292,0.6988,4.75,-38.75,23.25,281.05,-74.67,115.61,72025,2015-10-08 14:02:02:804,1
5.2289,6.359,0.0766,-0.7371,9.7469,-0.7911,6.0622,-3.45,1.1557,-0.0682,-1.1036,1.2485,2.5,-40,23.5,301.42,-81.47,126.76,72125,2015-10-08 14:02:02:904,1
2.8156,8.4851,-1.6089,0.2615,9.7366,-1.1408,2.857,-1.6051,-0.1252,0.8203,-1.0077,0.686,2.5,-38.25,23.25,316.78,-83.67,137.02,72225,2015-10-08 14:02:03:004,1
1.494,7.9487,-1.1684,0.8338,9.6994,-1.1821,0.7578,-1.7657,-0.0467,0.13,-0.0362,0.3665,0.25,-38.5,25.5,37.03,-82.57,-149.76,72325,2015-10-08 14:02:03:104,1
1.8387,9.098,-1.4748,1.1855,9.667,-1.146,0.6819,-0.57,-0.3078,-0.017,0.0362,0.1406,-0.25,-37.75,25.25,54.56,-80.34,-137.94,72425,2015-10-08 14:02:03:204,1
1.8771,8.849,-1.8962,1.3676,9.635,-1.2107,0.5094,-0.7861,-0.6855,0.0149,-0.0085,0.0597,-1.5,-38.5,25.75,59.66,-79.74,-131.67,72525,2015-10-08 14:02:03:304,1
2.0111,8.0637,-1.2833,1.4954,9.6197,-1.1813,0.5157,-1.556,-0.102,-0.1278,-0.081,0.049,-4,-36.75,25.5,59.28,-79,-131.21,72625,2015-10-08 14:02:03:404,1
2.9113,8.8681,-0.5363,1.7867,9.6027,-0.8756,0.9523,-0.8686,0.2243,-0.3814,0.3728,0.3004,-4,-37,25.5,59.79,-78.79,-125.82,72725,2015-10-08 14:02:03:504,1
3.3902,8.6574,-0.4788,1.8484,9.6189,-0.48,1.5418,-0.9615,0.0012,-0.0107,0.3174,-0.5262,-5.25,-37,25,82.25,-78.35,-103.84,72825,2015-10-08 14:02:03:604,1
3.4668,8.6,0.0766,1.5953,9.676,0.0167,1.8716,-1.076,0.0599,-0.4005,0.1406,-0.7244,-5.5,-36.5,23.5,85.24,-80.05,-97.95,72925,2015-10-08 14:02:03:704,1
0.9194,8.6191,1.0343,0.9786,9.7564,0.1604,-0.5805,-1.0756,0.8674,-0.0511,0.017,-0.2706,-5.75,-38.75,22.25,90.25,-83.38,-85.94,73025,2015-10-08 14:02:03:804,1
0.4597,8.9064,0.5363,0.7207,9.7786,0.1757,-0.2115,-0.8742,0.291,-0.2471,0.0724,-0.6541,-4.5,-39.5,21.25,100.7,-85.66,-76.3,73125,2015-10-08 14:02:03:904,1
-0.9768,8.9256,1.0343,0.4515,9.7881,0.3992,-1.7021,-1.13,0.9313,-0.4389,0.1534,-0.2216,-2.5,-40.25,20.75,131.04,-86.48,-48.51,73225,2015-10-08 14:02:04:004,1
-2.624,10.1706,0.4405,-0.0116,9.79,0.5718,-4.3155,0.1481,-0.8492,-0.2663,0.3238,0.2961,-1.75,-40.25,20,176.14,-86.94,1.45,73325,2015-10-08 14:02:04:104,1
-0.8045,11.3198,-0.4405,0.0207,9.7977,0.4187,-1.0054,1.9051,-1.1442,-0.1875,0.0575,0.1001,-0.75,-39.75,19,176.7,-87.61,-0.57,73425,2015-10-08 14:02:04:204,1
-1.4365,9.9407,0.1915,-0.2457,9.7909,0.4986,-1.3119,0.2432,-0.3625,-0.0746,-0.3899,-0.0831,-1,-39.5,19,195.8,-87.19,20.36,73525,2015-10-08 14:02:04:304,1
-1.4557,9.347,0.4405,-0.4318,9.782,0.5451,-1.0047,-0.5499,-0.2003,-0.228,-0.1108,-0.2365,0,-39.25,18.5,210.67,-86.06,34.74,73625,2015-10-08 14:02:04:404,1
-0.2107,9.7875,0.2873,-0.4651,9.7788,0.5736,0.2928,-0.0296,-0.2289,0.115,0.0405,0.0724,1,-39,18.25,217.73,-85.55,40.37,73725,2015-10-08 14:02:04:504,1
-0.249,9.0597,0.4597,-0.4412,9.7792,0.5859,0.1922,-0.7195,-0.1262,0.0575,-0.0064,-0.0192,1.75,-39.75,18.5,217.6,-85.69,37.03,73825,2015-10-08 14:02:04:604,1
0.1915,8.9447,0.6129,-0.3711,9.7828,0.5738,0.5626,-0.8764,0.1158,-0.0298,0.0043,0.2003,0.75,-40.5,18.25,212.86,-85.87,34.58,73926,2015-10-08 14:02:04:705,1
0.8811,9.1171,0.4022,-0.2071,9.7879,0.5692,1.1073,-0.6325,-0.0521,0.0128,-0.0533,0.0937,-0.25,-39.75,18.75,203.39,-86.3,26.43,74026,2015-10-08 14:02:04:805,1
1.6664,9.1171,0.498,-0.0408,9.7907,0.5576,1.5348,-0.6927,-0.0979,-0.0043,0.0639,0.0852,-0.25,-39.5,18.5,189.77,-86.68,10.91,74125,2015-10-08 14:02:04:904,1
2.375,9.1171,0.2107,0.17,9.7844,0.6384,2.2051,-0.6673,-0.4277,-0.0575,0.0852,-0.0383,-0.25,-40,18.75,169.69,-86.25,-11.7,74225,2015-10-08 14:02:05:004,1
1.3408,8.5808,0.4405,0.2238,9.7871,0.5767,1.117,-1.2063,-0.1362,-0.147,-0.2407,0.0298,-0.75,-40.75,18,160.73,-86.31,-18.83,74325,2015-10-08 14:02:05:104,1
-1.5131,9.2703,0.3639,0.5843,9.7787,0.4539,-1.6323,-0.836,-0.12,0.0831,-0.4836,0.4559,-1.25,-40.5,17.5,160.05,-86.09,-22.94,74425,2015-10-08 14:02:05:204,1
-2.241,10.6111,-0.4022,0.9447,9.7577,0.2539,-3.0935,0.7919,-0.8577,-0.0682,-0.7968,0.5518,-1.75,-39.75,19.5,111.14,-84.83,-72.73,74525,2015-10-08 14:02:05:304,1
-2.3942,11.1857,1.0918,1.0699,9.7331,0.5416,-3.5985,1.6811,0.4818,-0.1108,-0.4005,0.1981,-3.75,-38.75,19.5,115.44,-82.88,-65.52,74626,2015-10-08 14:02:05:405,1
-2.7773,11.5305,1.743,0.6242,9.769,0.5893,-3.4014,1.7615,1.3069,0.2812,0.8117,-0.3025,-3,-39.5,18.75,122.01,-83.27,-60.22,74726,2015-10-08 14:02:05:505,1
-2.1835,10.6494,1.4174,-0.1816,9.8006,0.2923,-1.8256,0.6962,0.9416,0.3473,1.5936,-0.5028,-3.5,-40.25,19.25,138.58,-86.21,-37.61,74826,2015-10-08 14:02:05:605,1
-1.8387,11.1091,0.4022,-1.0337,9.7508,-0.1536,0.9693,1.7531,1.4162,-0.1534,1.338,-0.5475,-3,-37.75,19.25,251.96,-86.99,86.58,74926,2015-10-08 14:02:05:705,1
-2.1835,9.9982,0.1341,-1.9709,9.592,-0.5283,0.1431,0.9889,0.3782,0.963,0.1811,-1.3529,-2.75,-40.75,19.75,255.8,-82.85,95.05,75026,2015-10-08 14:02:05:805,1
1.2641,10.4196,-0.8428,-2.1435,9.5436,-0.7043,3.4626,0.2998,-0.7851,-0.1981,-0.8778,-0.6349,-1.25,-39,21.25,260.15,-76.7,108.19,75126,2015-10-08 14:02:05:905,1
3.1603,6.3973,-1.0151,-1.8911,9.6208,-0.1882,3.8029,-2.9632,-0.8336,-0.7542,-0.98,-0.1981,1.75,-39.25,21.5,265.36,-77.94,102.13,75226,2015-10-08 14:02:06:005,1
3.237,5.0949,0.0766,-1.1128,9.7374,-0.3399,4.211,-4.6579,0.4017,0.2642,-1.0354,1.3337,1.75,-39,20.75,268.28,-80.97,99.89,75326,2015-10-08 14:02:06:105,1
4.3479,8.4467,-0.8236,0.501,9.7413,-1.0133,3.6992,-1.2873,0.1753,0.3878,-1.1207,1.3486,1.75,-39,21,279.79,-83.19,106.99,75426,2015-10-08 14:02:06:205,1
1.494,8.6191,0.8045,1.219,9.7135,-0.5761,0.2583,-1.0943,1.3459,-0.2194,0.1641,0.1214,-0.25,-39,23.5,66.12,-81.99,-126.13,75526,2015-10-08 14:02:06:305,1
1.6089,8.9639,-1.2258,1.4308,9.6695,-0.7897,0.229,-0.716,-0.4738,0.1662,0.1321,0.2727,-3.5,-37.75,24,68.1,-80.92,-118.47,75626,2015-10-08 14:02:06:405,1
1.7813,8.6957,-0.9194,1.5981,9.6442,-0.7783,0.1976,-0.9504,-0.1361,-0.049,0.1065,0.1087,-3,-38.75,23.5,71.44,-79.72,-117.79,75725,2015-10-08 14:02:06:504,1
2.5091,8.7724,-0.9768,1.7328,9.6227,-0.7554,0.7886,-0.8527,-0.2222,-0.0767,0.1172,0.0554,-4.5,-38.25,24.5,73.63,-79,-113.8,75825,2015-10-08 14:02:06:604,1
2.7007,7.9104,-0.4788,1.8218,9.6128,-0.6672,0.8788,-1.7024,0.1883,-0.0085,-0.2429,-0.1321,-6,-38,24.5,73.28,-78.59,-110.11,75925,2015-10-08 14:02:06:704,1
2.6815,8.734,-0.5555,1.7472,9.6348,-0.5362,0.9343,-0.9008,-0.0192,0.0128,0.1278,-0.3941,-6,-36.75,23.25,73,-78.66,-110.38,76025,2015-10-08 14:02:06:804,1
2.7198,8.5808,-0.5363,1.4192,9.6999,-0.2626,1.3006,-1.119,-0.2737,-0.2344,0.2067,-0.62,-6,-37.75,23,77.59,-81.16,-101.97,76125,2015-10-08 14:02:06:904,1
2.9305,8.5042,-0.5555,1.2947,9.7208,-0.0152,1.6358,-1.2166,-0.5402,-0.5348,0.2876,-0.2429,-5.25,-39.5,22.5,89.81,-82.41,-90.67,76225,2015-10-08 14:02:07:004,1
1.3599,9.0788,0.4214,1.1362,9.7212,0.6154,0.2237,-0.6423,-0.194,-0.3089,0.2855,-0.1939,-4.75,-40.75,21.25,109.64,-82.46,-70.48,76325,2015-10-08 14:02:07:104,1
0.8619,9.5002,-0.0958,0.9812,9.718,0.8767,0.168,-0.5242,1.1919,0.4964,0.0383,-0.2535,-3.25,-40.25,19,119.94,-82.43,-61.56,76426,2015-10-08 14:02:07:205,1
0.498,8.9256,0.6704,0.7088,9.7646,0.5668,-0.2362,-0.8207,0.6932,0.882,-0.3345,-0.13,-2.75,-43,18,137.94,-83.64,-42.52,76526,2015-10-08 14:02:07:305,1
-2.1644,10.5536,0.2298,0.5961,9.7706,0.5922,-2.7313,0.7795,-0.3315,0.2983,-0.4069,0.0447,-3,-41.5,18.5,131.46,-84.69,-51.36,76626,2015-10-08 14:02:07:405,1
-1.6855,10.8793,-0.5938,0.4284,9.7939,0.2584,-2.5284,0.8803,-0.3087,0.3984,-0.228,0.1108,-2,-40.75,19,132.02,-86.24,-47.92,76726,2015-10-08 14:02:07:505,1
-1.5706,9.596,-0.1915,0.25,9.8025,0.1391,-1.4974,-0.187,-0.5596,0.1342,-0.1193,0.2216,-2,-41,20,120.5,-87.08,-58.91,76825,2015-10-08 14:02:07:604,1
0.4214,9.5385,0.5363,0.2776,9.8011,0.1783,0.1629,-0.186,0.2814,-0.0341,0.0149,-0.0256,-1,-39.75,20.75,116.54,-88.33,-60.92,76925,2015-10-08 14:02:07:704,1
