ACCELEROMETER X (m/s²),ACCELEROMETER Y (m/s²),ACCELEROMETER Z (m/s²),GRAVITY X (m/s²),GRAVITY Y (m/s²),GRAVITY Z (m/s²),LINEAR ACCELERATION X (m/s²),LINEAR ACCELERATION Y (m/s²),LINEAR ACCELERATION Z (m/s²),GYROSCOPE X (rad/s),GYROSCOPE Y (rad/s),GYROSCOPE Z (rad/s),MAGNETIC FIELD X (μT),MAGNETIC FIELD Y (μT),MAGNETIC FIELD Z (μT),ORIENTATION Z (azimuth °),ORIENTATION X (pitch °),ORIENTATION Y (roll °),Time since start in ms ,YYYY-MO-DD HH-MI-SS_SSS,state
0.6704,8.6574,2.1261,0.4098,9.363,2.8873,0.2606,-0.6673,-0.6464,-0.0383,0.0256,-0.0959,-3.75,-43,10.75,166.34,-72.7,-8.08,155,2015-10-08 14:46:00:109,1
0.7853,8.849,2.7007,0.4049,9.3427,2.9531,0.4762,-0.4554,-0.1759,-0.1385,-0.0533,-0.081,-4,-41.5,10.25,166.03,-72.3,-7.81,255,2015-10-08 14:46:00:209,1
1.2067,9.0597,2.739,0.4076,9.3342,2.9795,0.7991,-0.2745,-0.2405,0.0383,0.0405,-0.2344,-4.25,-41.75,10.25,166.24,-72.12,-7.91,355,2015-10-08 14:46:00:309,1
1.6664,8.8681,2.5857,0.3675,9.3594,2.9047,1.2989,-0.4913,-0.3189,-0.0085,-0.1321,-0.3451,-4.25,-41.75,10.25,166.5,-72.41,-7.09,454,2015-10-08 14:46:00:408,1
1.3791,8.6383,2.2027,0.2533,9.4319,2.673,1.1811,-0.9009,-0.7358,0.3281,-0.4027,-0.1832,-4.25,-41.75,10.25,166.36,-72.63,-7.21,555,2015-10-08 14:46:00:509,1
1.0534,8.0062,2.1261,0.225,9.4892,2.4648,0.8285,-1.483,-0.3387,0.0107,-0.6541,-0.1854,-2.75,-43,11.75,169.75,-75.21,-4.98,655,2015-10-08 14:46:00:609,1
0.6704,8.3127,2.2218,0.3454,9.491,2.4438,0.325,-1.1783,-0.222,0.1406,-0.7073,-0.0149,-2.5,-42.5,13,171.5,-75.31,-6.35,755,2015-10-08 14:46:00:709,1
-0.0958,9.4619,1.494,0.7781,9.5233,2.2074,-0.8739,-0.0614,-0.7134,-0.1704,-1.044,0.4368,-1,-43,13.75,170.01,-76.28,-12.87,855,2015-10-08 14:46:00:809,1
-0.4788,10.4579,2.9305,1.2054,9.4681,2.2523,-1.6843,0.9898,0.6782,-0.1044,-1.0013,0.4623,0,-43,14.75,164.76,-75.38,-25.77,955,2015-10-08 14:46:00:909,1
-1.992,10.8984,4.0031,1.3475,9.4483,2.255,-3.3313,1.0295,1.5679,0.179,-0.1641,0.3643,0,-41.75,14.5,163.2,-74.9,-28.16,1055,2015-10-08 14:46:01:009,1
-1.743,11.3964,4.7884,0.9721,9.4477,2.4428,-3.0134,2.1422,2.3283,0.1704,1.4871,0.1023,-1.25,-41.5,14.25,162.75,-74.35,-26.11,1155,2015-10-08 14:46:01:109,1
-0.996,11.6646,1.0151,-0.5568,9.643,1.6947,-1.1287,1.6193,-0.4497,0.4027,2.073,-1.1228,-3,-40.75,14.75,174.45,-79.08,3.04,1255,2015-10-08 14:46:01:209,1
-2.241,9.7683,2.2027,-1.8232,9.5509,1.2757,-0.4178,0.2175,0.9269,0.6754,1.0163,-1.5255,-5.25,-39.75,15.75,182.24,-79.52,18.19,1355,2015-10-08 14:46:01:309,1
-3.1603,9.0597,2.1261,-3.2211,9.2517,0.4472,0.7303,-0.3666,0.8914,1.2293,-0.1214,-0.1917,-2.75,-41.75,16.5,207.03,-76.89,55.02,1454,2015-10-08 14:46:01:408,1
-0.6512,5.0182,0.1341,-2.7043,9.4257,-0.1187,2.053,-4.4074,0.2528,0.179,0.9055,2.056,0.75,-40.25,19.25,243.89,-73.98,92.51,1555,2015-10-08 14:46:01:509,1
10.5153,5.0374,-2.739,0.0244,9.739,-1.1497,10.4909,-4.7016,-1.5893,-0.2173,-1.142,2.2797,2.75,-40.25,22.5,292.4,-82.37,117.47,1655,2015-10-08 14:46:01:609,1
4.5011,7.4124,2.7581,2.1971,9.5568,-0.1062,3.2018,-1.4855,2.8533,-1.1249,0.5689,-0.441,-2,-38.75,26.5,50.91,-80.99,-143.59,1755,2015-10-08 14:46:01:709,1
3.371,8.4467,-1.6664,2.2233,9.5438,-0.3788,1.1477,-1.097,-1.2876,-0.1854,0.1193,0.0874,-7,-37.75,27.5,87.53,-77.12,-96,1855,2015-10-08 14:46:01:809,1
4.6735,9.596,-0.7087,2.4471,9.495,-0.1621,2.1763,0.2322,-0.5751,-0.2003,0.2407,-0.0724,-9.5,-37.75,25.75,85.01,-76.25,-97.39,1955,2015-10-08 14:46:01:909,1
5.2672,9.596,-0.0958,2.0547,9.5782,0.4549,3.0731,0.1267,-0.1558,-0.1342,0.2493,-0.7244,-10,-37,25,96.79,-76.89,-79.76,2055,2015-10-08 14:46:02:009,1
3.869,8.2361,1.6855,1.1603,9.6705,1.1428,2.4515,-1.3225,1.0229,-0.2684,0.2621,-1.0056,-10,-38.25,23.5,117.49,-79.62,-53.18,2155,2015-10-08 14:46:02:109,1
2.6049,8.2169,1.2641,0.3889,9.6886,1.4665,-0.7083,-1.4734,-0.0264,0.2194,0.7947,-1.1441,-6.75,-39.25,19.75,145.81,-80.52,-24.39,2256,2015-10-08 14:46:02:210,1
-2.988,8.2552,1.2067,-0.4299,9.695,1.4117,-2.1406,-1.4379,-0.5646,0.0256,-0.3899,-0.2855,-3,-41.25,18,178.26,-81.39,7.15,2355,2015-10-08 14:46:02:309,1
-4.5777,8.3127,1.3599,-0.8055,9.6594,1.4892,-3.3384,-1.1412,-0.4908,0.0107,-0.8714,-0.0298,0,-41,17.75,193.28,-81.28,20.96,2455,2015-10-08 14:46:02:409,1
-4.1563,10.5345,1.5323,-0.8484,9.6719,1.38,-3.5883,0.3611,-0.2089,-0.1768,-0.669,0.4133,2.25,-39.5,17.5,210.47,-80.74,33.97,2555,2015-10-08 14:46:02:509,1
-2.3942,10.5536,1.5897,-0.7767,9.6808,1.3598,-1.9449,0.8729,0.0371,0.0213,-0.1449,0.1193,2.25,-39.75,18.5,207.99,-80.74,30.79,2655,2015-10-08 14:46:02:609,1
-1.1875,9.4236,0.747,-0.7626,9.7045,1.1882,-0.4249,-0.2809,-0.4412,-0.147,0.0511,0.0447,3.5,-41.75,18.5,211.54,-81.15,31.92,2755,2015-10-08 14:46:02:709,1
-0.3639,9.4619,1.3408,-0.711,9.689,1.3369,0.2272,-0.2278,0.0253,0.0639,0.017,-0.0469,2.25,-40.75,18.75,206.61,-81.24,28.77,2856,2015-10-08 14:46:02:810,1
-0.3639,9.2703,1.1684,-0.7865,9.6781,1.3734,0.4177,-0.2259,-0.3022,-0.179,0.0916,-0.1832,1.75,-39.25,18.25,207.77,-81.13,30.07,2956,2015-10-08 14:46:02:910,1
-0.2298,8.734,1.2833,-0.8291,9.6642,1.4444,0.6323,-0.8332,-0.084,-0.147,0.1087,0.0064,2,-40.75,17.75,207.11,-80.3,30.48,3055,2015-10-08 14:46:03:009,1
0.747,8.4851,1.3024,-0.6584,9.6718,1.4809,1.3708,-1.2444,-0.2246,-0.1406,0.1193,0.1385,1.75,-40.75,17.75,204.58,-80.51,26.89,3155,2015-10-08 14:46:03:109,1
1.9728,9.7875,0.5171,-0.4382,9.7067,1.3259,2.162,-0.1874,-0.9237,-0.0852,-0.0767,0.049,2,-42.5,17,198.73,-81.81,18.29,3255,2015-10-08 14:46:03:209,1
1.3982,8.8873,1.8771,-0.243,9.6935,1.4652,1.6221,-1.0744,0.6417,-0.098,-0.2599,-0.1278,2,-42,16.75,191.87,-81.29,9.42,3355,2015-10-08 14:46:03:309,1
-0.3065,7.9296,1.1684,-0.033,9.7282,1.2373,-0.2735,-1.7986,-0.069,0.1023,-0.6946,0.1108,1.75,-41,18,189.09,-82.53,5.34,3455,2015-10-08 14:46:03:409,1
-0.5171,9.098,0.9002,0.5024,9.728,1.1334,-1.3068,-0.3427,0.5521,-0.277,-0.7073,0.7436,2,-40.5,18.75,182.88,-82.84,-2.67,3555,2015-10-08 14:46:03:509,1
-1.1875,10.5345,1.3599,1.0519,9.7056,0.9299,-2.1054,0.8672,0.5066,0.2173,-0.4027,0.7862,1.25,-38.5,19.5,143.41,-81.77,-48.52,3655,2015-10-08 14:46:03:609,1
-1.7047,10.9559,0.7278,1.4286,9.6762,0.7076,-3.1332,1.2797,0.0202,0.2599,-0.3111,0.4687,-1.25,-38.5,21,126.95,-80.64,-63.65,3755,2015-10-08 14:46:03:709,1
-1.6281,11.7029,1.9154,1.3274,9.6977,0.6024,-2.9555,2.0051,1.313,0.1129,0.2024,-0.0703,-2,-37.25,21.5,122.22,-80.74,-65.95,3855,2015-10-08 14:46:03:809,1
-0.6895,11.0708,1.0726,0.4745,9.788,0.3755,-1.0683,1.1296,0.6397,0.3686,1.4338,-0.6796,-2.5,-36.75,22.5,121.88,-85.02,-59.85,3956,2015-10-08 14:46:03:910,1
-1.3216,9.9599,1.1875,-0.6805,9.7739,0.4223,-0.6411,0.186,0.7653,-0.4538,1.453,-0.9523,-3,-37.25,23.25,213.6,-87.27,43.41,4055,2015-10-08 14:46:04:009,1
-2.2984,10.7069,0.8619,-1.9641,9.6057,0.2069,-0.3344,1.1011,0.655,0.5944,0.8671,-1.3103,-1.5,-39.25,22,243.02,-78.38,83.99,4155,2015-10-08 14:46:04:109,1
-3.6966,9.5193,1.2833,-2.939,9.3559,-0.0215,-0.7576,0.1635,1.3048,-0.62,0.7116,0.0788,2,-39.75,23.5,249.19,-75.92,89.77,4255,2015-10-08 14:46:04:209,1
0.2107,8.5808,0.3831,-3.0227,9.3291,-0.0313,3.2333,-0.7483,0.4144,0.9417,-0.115,0.0788,6,-41.25,23,253.71,-72.05,90.59,4355,2015-10-08 14:46:04:309,1
4.7693,6.3973,-0.6704,-2.335,9.5239,0.1125,7.1043,-3.1266,-0.7828,-0.3089,-0.8181,0.7691,6.5,-40.25,23.25,258.12,-72.91,93.3,4455,2015-10-08 14:46:04:409,1
2.988,7.0485,-0.3831,-1.0907,9.7458,0.0173,4.0786,-2.6973,-0.4004,0.4069,-0.8863,1.2549,6.25,-40.5,23.25,272.85,-83.61,89.09,4556,2015-10-08 14:46:04:510,1
2.5474,7.2975,0.7278,0.2299,9.8017,-0.2106,2.3176,-2.5042,0.9384,0.4794,-0.1427,0.8501,2.5,-41,24.75,56.84,-88.18,-132.5,4655,2015-10-08 14:46:04:609,1
2.7773,9.3087,-0.8045,1.2069,9.7142,-0.5904,1.5703,-0.4055,-0.214,0.1513,0.0618,0.3473,-1.75,-39.5,25.75,70.97,-82.13,-116.07,4755,2015-10-08 14:46:04:709,1
3.122,9.347,-0.7278,1.4461,9.687,-0.492,1.676,-0.34,-0.2358,-0.1236,0.2301,-0.2088,-5.25,-37.5,26.25,68.85,-81.35,-114.12,4855,2015-10-08 14:46:04:809,1
3.1987,8.7149,0.0383,1.2039,9.7311,-0.1629,1.9948,-1.0162,0.2012,-0.2834,0.2684,-0.6924,-4.75,-38.25,24.75,81.66,-82.88,-97.71,4955,2015-10-08 14:46:04:909,1
0.1532,8.4659,1.3791,0.5111,9.776,0.5822,1.4617,-1.5591,0.3563,-0.4708,0.5731,-1.0695,-4,-39.25,22.75,134.2,-85.47,-41.28,5055,2015-10-08 14:46:05:009,1
-0.3639,8.9064,0.2873,-0.3781,9.7784,0.6412,0.0142,-0.8719,-0.3538,-0.5603,0.3984,-0.7009,-3.5,-40.25,21.5,184.83,-86.24,13.15,5155,2015-10-08 14:46:05:109,1
-1.6472,8.2552,2.5474,-1.0111,9.6875,1.1401,-0.5555,-1.2825,1.3511,-0.522,0.1129,-0.4794,0.25,-41.5,20.75,212.48,-81.06,41.57,5255,2015-10-08 14:46:05:209,1
-3.984,8.0445,0.6704,-1.4917,9.6193,1.1894,-2.4731,-1.7088,-1.017,0.0021,-0.1342,-0.0298,2.75,-43,18.75,215.82,-79.53,42.22,5357,2015-10-08 14:46:05:311,1
-4.5203,9.3853,1.3024,-1.686,9.5658,1.35,-2.8342,-0.1806,-0.0476,0.4772,-0.9119,0.375,4.25,-43.5,18.5,223.45,-77.32,50.62,5455,2015-10-08 14:46:05:409,1
-3.2753,10.9942,0.7087,-1.4081,9.6432,1.0937,-1.8672,1.351,-0.385,0.2727,-0.588,0.3111,5.75,-44.25,17.75,225.53,-77.28,51.32,5555,2015-10-08 14:46:05:509,1
-1.992,10.3621,0.4597,-1.2254,9.6974,0.793,-0.6296,0.6222,-0.2486,0.294,0.0277,0.0831,6.25,-43,18.25,231.93,-79.52,52.16,5654,2015-10-08 14:46:05:608,1
-1.1109,9.5385,0.6321,-1.1808,9.7138,0.6468,0.1244,-0.1726,0.1094,-0.0362,-0.0874,-0.0682,4.75,-42.75,19,238.82,-81.44,57.09,5755,2015-10-08 14:46:05:709,1
-0.5938,9.481,1.0534,-1.2275,9.7074,0.6561,0.6864,-0.1698,0.3636,-0.0277,0.0213,-0.0895,4,-42.25,20.25,238.57,-81.96,61.34,5855,2015-10-08 14:46:05:809,1
-0.9577,8.9256,0.7278,-1.3531,9.6902,0.663,0.2739,-0.823,-0.0313,0.0639,0.0043,-0.0895,3.5,-42,20.5,238.48,-81.43,61.98,5955,2015-10-08 14:46:05:909,1
-0.747,9.1171,0.5363,-1.297,9.7018,0.6027,0.5454,-0.6399,-0.0898,0.0213,0.049,0.0383,4,-41.5,21,239.73,-81.16,63.89,6056,2015-10-08 14:46:06:010,1
-0.498,9.4619,0.747,-1.1982,9.7149,0.5964,0.7666,-0.1965,0.1462,-0.0021,0.0767,0.1406,4.25,-43.75,20.25,240.8,-81.93,64.69,6155,2015-10-08 14:46:06:109,1
0.0766,9.8833,0.5555,-1.0991,9.7274,0.5828,1.1207,0.1752,-0.0448,-0.0341,-0.0107,-0.081,3.5,-42.75,21,240.01,-82.6,62.06,6255,2015-10-08 14:46:06:209,1
1.3791,9.1363,0.8236,-1.1168,9.7276,0.5451,2.4959,-0.5913,0.2785,0.0256,0.0703,-0.3281,3.5,-40.25,20.75,238.53,-82.64,62.67,6355,2015-10-08 14:46:06:309,1
1.2067,8.4851,0.4788,-1.0624,9.7427,0.3475,2.2691,-1.2577,0.1313,-0.196,-0.13,-0.0447,3.5,-41.75,21,250.95,-83.21,72.81,6455,2015-10-08 14:46:06:409,1
-0.1532,8.7724,0.3065,-1.0131,9.7526,0.1778,0.8599,-0.9802,0.1287,0.0959,-0.5049,0.0213,4.5,-41.75,21.5,254.03,-83.52,72.85,6555,2015-10-08 14:46:06:509,1
-1.9154,9.3661,0.3831,-0.8365,9.7693,-0.1769,-1.0789,-0.4032,0.5599,0.0234,-1.012,0.3686,5.75,-41.5,22.25,264.21,-84.21,81.93,6655,2015-10-08 14:46:06:609,1
-3.5626,8.849,0.5938,-0.5317,9.7898,-0.2168,-3.0308,-0.9409,0.8106,-0.066,-1.3018,0.7755,5.75,-39.75,23.5,298.47,-85.82,110.46,6755,2015-10-08 14:46:06:709,1
-3.6583,10.9559,2.5666,-0.0202,9.7984,0.4022,-3.6171,1.0372,1.8429,-0.6306,-0.4133,0.7563,6.75,-38.25,24.25,292.04,-88.51,97.89,6855,2015-10-08 14:46:06:809,1
-3.3902,10.7069,3.1795,-0.0531,9.7532,1.0208,-3.3371,0.9536,2.1587,-0.4069,1.6767,0.0234,6,-39.5,23.75,194.7,-84.02,2.98,6955,2015-10-08 14:46:06:909,1
-1.9154,10.8793,1.2833,-0.6411,9.7119,1.1991,-1.2743,1.1673,0.0842,0.1619,2.448,-0.4581,2.25,-39.75,21.25,197.1,-81.98,15.97,7055,2015-10-08 14:46:07:009,1
-1.6664,10.8793,1.8771,-1.7708,9.6192,0.7116,-0.2879,1.0193,1.4912,0.7521,0.539,-1.7151,0.5,-39.25,20.25,228.73,-80.54,59.51,7154,2015-10-08 14:46:07:108,1
-1.6472,12.0476,-0.996,-3.0987,9.302,-0.2037,0.9231,2.7165,-0.3853,-1.1207,0.8501,-0.6434,-1,-40,19.25,236.16,-73.42,88.9,7256,2015-10-08 14:46:07:210,1
-3.1029,10.0748,-2.5474,-3.9172,8.9827,-0.3705,2.0485,0.7107,-0.4604,1.1484,-0.7755,-1.1718,3,-41.5,22,241.44,-68.15,91.54,7356,2015-10-08 14:46:07:310,1
2.1644,7.2592,2.4708,-3.3789,9.2061,0.0163,5.5433,-1.9469,2.4545,-0.7521,-0.0192,0.6157,6.75,-41.5,22.25,251.45,-68.76,93.05,7455,2015-10-08 14:46:07:409,1
3.1795,6.5697,0.2873,-2.2483,9.5319,-0.5077,5.4278,-2.9622,0.795,0.1491,-0.4282,1.5212,9.75,-42,23.25,257.82,-69.85,89.72,7555,2015-10-08 14:46:07:509,1
4.7309,8.1594,-0.9768,0.0401,9.7336,-1.1945,5.0547,-0.9612,0.3517,0.3728,-0.9012,1.8727,8.75,-40.5,24.75,283.22,-76.41,102.72,7656,2015-10-08 14:46:07:610,1
1.9345,7.1443,2.8922,1.1692,9.7327,-0.2782,0.7653,-2.5884,3.1704,0.3153,0.0362,0.3068,3.5,-39.75,27.25,62.49,-82.47,-136.01,7755,2015-10-08 14:46:07:709,1
2.4708,8.1594,-1.8004,1.578,9.6267,-1.0038,0.8928,-1.4672,-0.7966,0.6136,-0.0447,0.4687,-2,-40,26.5,88.84,-82.29,-104.07,7855,2015-10-08 14:46:07:809,1
3.122,8.4276,-1.0726,1.951,9.5678,-0.9064,1.3815,-1.1435,0.3388,-0.7542,0.3132,0.017,-5.25,-38.5,27,65.49,-77.95,-122.91,7955,2015-10-08 14:46:07:909,1
3.8882,8.8681,0.5363,1.8434,9.631,-0.1286,2.0448,-0.7629,0.6649,-0.4325,0.1854,-0.7201,-6,-38.75,27.5,85.63,-78.35,-98.62,8055,2015-10-08 14:46:08:009,1
1.8962,8.4084,0.5746,1.0572,9.7364,0.5047,0.4751,-1.4429,1.0851,-1.0823,0.3878,-1.0631,-5.75,-38.75,25.5,95.57,-81.94,-83.27,8155,2015-10-08 14:46:08:109,1
0.3831,9.0788,1.8196,0.2841,9.7698,0.8,0.0607,-0.8059,1.9964,0.3089,0.4985,-0.7414,-5,-40,22.75,125.75,-83.96,-50.16,8255,2015-10-08 14:46:08:209,1
-1.4365,8.3127,2.375,-0.4744,9.7774,0.5896,-1.0855,-1.6103,1.6992,-0.4666,0.294,-0.8266,-1.75,-41.25,21,167.95,-85.51,-5.99,8355,2015-10-08 14:46:08:309,1
-2.739,8.2552,2.4134,-0.9404,9.7323,0.7542,-1.2048,-1.5537,1.8699,-0.1023,0.2791,-0.1726,2.5,-43,21,228.77,-82.94,51.27,8455,2015-10-08 14:46:08:409,1
-4.8076,8.9639,0.1149,-1.2968,9.6796,0.8912,-4.5642,-0.1219,-0.7954,-0.4091,-0.2003,0.0575,5.5,-42.25,21.5,237.66,-81.44,55.62,8555,2015-10-08 14:46:08:509,1
-4.8267,10.7835,-0.4405,-1.4132,9.665,0.873,-3.3369,1.0228,-1.2369,0.0788,-0.2301,0.1172,5.5,-42.5,21,237.86,-80.23,57.74,8655,2015-10-08 14:46:08:609,1
-2.0877,10.6111,-0.4405,-1.3988,9.6819,0.6892,-0.3825,0.5653,-0.6509,-0.2045,-0.0405,0.1065,4.5,-41.5,20.5,238.83,-80.3,61.54,8755,2015-10-08 14:46:08:709,1
-1.2641,9.232,0.6321,-1.4401,9.6809,0.6143,0.176,-0.4488,0.0178,0.1683,-0.0511,-0.081,5,-40.25,20.75,242.2,-80.85,63.77,8855,2015-10-08 14:46:08:809,1
-0.9194,9.347,1.0534,-1.4812,9.6724,0.6491,0.5618,-0.3254,0.4044,-0.1129,0.1385,-0.2429,4.75,-41.75,20.75,244.34,-80.56,67.55,8955,2015-10-08 14:46:08:909,1
-1.3408,9.0022,0.7661,-1.5275,9.6634,0.6758,0.1867,-0.6612,0.0903,-0.049,-0.0554,0.0043,5,-41.25,21.25,243.11,-80.19,66.34,9055,2015-10-08 14:46:09:009,1
-0.9577,9.1746,0.6895,-1.4728,9.6727,0.6632,0.5909,-0.4989,0.0743,0.0597,0.0618,0.0085,5,-41.25,20.5,242.96,-80.39,65.84,9155,2015-10-08 14:46:09:109,1
-1.0343,9.2512,0.6321,-1.4412,9.6809,0.611,0.4317,-0.4474,0.0691,0.0916,-0.0192,0.0234,5.5,-41,21,247.04,-80.81,67.02,9255,2015-10-08 14:46:09:209,1
-0.8428,9.098,0.6704,-1.3895,9.6895,0.5945,0.5468,-0.5915,0.0759,0.0362,-0.0192,-0.0149,4.75,-41.75,21,244.62,-81.13,66.84,9355,2015-10-08 14:46:09:309,1
0,9.1937,0.8619,-1.2272,9.7103,0.6114,1.3495,-0.401,0.2745,0.0107,0.1321,-0.147,4,-42,20.5,241.46,-81.53,64.9,9456,2015-10-08 14:46:09:410,1
0.1341,8.2744,0.3256,-1.0947,9.7276,0.5889,1.2172,-1.4526,-0.2019,-0.1257,0.1023,0.245,5.25,-43,21.75,242.29,-82.72,61.72,9554,2015-10-08 14:46:09:508,1
2.0303,9.6343,-0.6512,-0.7768,9.7564,0.6159,2.6556,-0.0884,-0.9412,-0.4389,-0.2855,0.1364,5.25,-42.25,21.5,235.57,-84.2,51.59,9655,2015-10-08 14:46:09:609,1
0.3448,8.7532,0.5363,-0.3334,9.7741,0.7259,0.9687,-1.093,0.0301,0.4858,-0.6306,0.3047,3.5,-41,21.25,212.32,-84.49,27.08,9755,2015-10-08 14:46:09:709,1
-0.2298,9.0788,0.8236,0.1522,9.7907,0.5381,-0.3417,-0.7708,0.0084,-0.0852,-0.8416,0.7308,1.75,-40.5,20.25,170.93,-86.73,-15.79,9855,2015-10-08 14:46:09:809,1
-0.5363,10.0365,0.8811,0.7567,9.7685,0.4167,-1.3504,0.2871,0.6751,-0.1449,-1.2634,0.6392,2.25,-39.25,21,131.22,-84.95,-61.16,9955,2015-10-08 14:46:09:909,1
-3.1987,10.1706,2.624,1.1363,9.7158,0.6944,-4.3158,0.2249,1.8339,-0.1257,-0.8117,0.7542,1.5,-38.5,21.75,135.78,-82.2,-58.57,10055,2015-10-08 14:46:10:009,1
-3.122,12.8138,2.6815,1.0614,9.6715,1.2268,-4.1835,3.1422,1.4547,0.0064,1.3529,-0.5902,1.25,-39,21.5,142.16,-79.99,-50.96,10191,2015-10-08 14:46:10:145,1
-2.1644,11.4539,2.3559,0.3157,9.7143,1.3052,-2.4801,1.7396,1.0507,0.2045,1.7726,-0.784,-2,-39.5,20.25,164.6,-82.13,-13.6,10255,2015-10-08 14:46:10:209,1
-2.375,9.3853,1.6664,-1.405,9.666,0.8745,-1.5129,-0.1212,0.5891,0.3047,1.7833,-1.2741,-1.5,-39,18.75,222.02,-80.28,58.1,10355,2015-10-08 14:46:10:309,1
-2.8922,9.9024,2.5857,-2.7473,9.3863,0.7215,-0.1449,0.5161,1.8642,0.3132,0.5646,-1.355,0.25,-40.25,19.5,229.63,-73.16,75.28,10456,2015-10-08 14:46:10:410,1
-0.9577,10.5728,2.3559,-3.2771,9.225,0.5753,2.3018,1.5896,1.7606,-0.2621,0.3153,-0.1449,3.75,-42.5,20,236.42,-69.95,81.31,10555,2015-10-08 14:46:10:509,1
0.2298,6.3973,0.4214,-3.0139,9.327,0.3054,3.2943,-1.9237,0.1552,0.3111,-0.7265,0.1427,6.75,-42.5,19.75,238.26,-70.72,80.35,10655,2015-10-08 14:46:10:609,1
4.2904,6.7804,-1.6281,-1.8414,9.6318,0.094,6.1318,-2.8514,-1.7221,0.522,-1.2783,1.1292,7,-42.75,20.5,255.9,-76.92,83.03,10755,2015-10-08 14:46:10:709,1
3.9265,7.8338,0,-0.1965,9.8026,0.2031,4.123,-1.9687,-0.2031,0.2024,-0.6519,0.7372,6.25,-42,22.5,236.25,-88.35,44.05,10855,2015-10-08 14:46:10:809,1
2.5474,8.9639,-0.1724,0.7077,9.7811,-0.0125,1.8397,-0.8172,-0.1598,0.228,0.0639,0.6988,3.75,-41,22.75,115.55,-87.79,-77.8,10955,2015-10-08 14:46:10:909,1
3.4477,8.8681,-1.2641,1.3229,9.6971,-0.6221,1.9027,-0.9259,-0.5217,0.0341,0.3899,0.2024,-0.25,-41,23,101,-85.86,-91.01,11055,2015-10-08 14:46:11:009,1
4.2713,8.4276,-0.6704,1.3985,9.6873,-0.6087,2.2585,-1.1716,-0.0816,0.066,0.4325,-0.424,-2.75,-40,25,77.09,-81.43,-115.19,11155,2015-10-08 14:46:11:109,1
2.2601,7.9487,-0.249,0.924,9.7619,-0.1483,0.6083,-1.8131,0.4547,-0.7521,0.4708,-0.8778,-3.75,-38.75,26,70.66,-81.05,-113.52,11256,2015-10-08 14:46:11:210,1
0.8619,7.8147,0.2107,0.4093,9.798,-0.0333,-0.1986,-1.6769,0.244,0.2727,0.0618,-0.7329,-4.25,-40.25,25.25,77.99,-84.52,-99.12,11355,2015-10-08 14:46:11:309,1
-0.249,7.604,2.5474,0.2049,9.7946,0.4411,-0.4538,-2.1906,2.1063,-0.3984,-0.3984,-0.4133,-0.25,-40.75,24.75,124.12,-87.73,-58.95,11455,2015-10-08 14:46:11:409,1
-3.62,11.0516,-0.6129,-0.1491,9.7955,0.4437,-3.6434,1.4669,-1.2673,-0.2429,-0.3324,0.3004,0,-40.25,23.5,188.73,-87.29,9.41,11556,2015-10-08 14:46:11:510,1
-2.3367,10.7643,0.6895,-0.3135,9.7776,0.6866,-2.0115,0.991,-0.05,-0.6796,-0.4133,0.1278,0.75,-41.5,22.75,207.59,-86.52,27.93,11655,2015-10-08 14:46:11:609,1
-2.2218,10.1897,-0.5171,-0.5589,9.7703,0.6312,-1.6469,0.3272,-0.5963,-0.2599,-0.6008,-0.2535,0,-41.5,21.25,207.36,-85.24,31.55,11755,2015-10-08 14:46:11:709,1
-2.2984,9.6343,0.6129,-0.7727,9.7535,0.6646,-1.5597,-0.1979,-0.2081,0.2535,-0.3643,-0.0426,1.25,-40.25,21,221.51,-84.01,46.21,11855,2015-10-08 14:46:11:809,1
-1.3024,9.1746,0.9002,-0.8148,9.76,0.499,-0.2316,-0.3574,0.3213,0.3728,-0.2088,0.1385,3.5,-42.75,21.25,231,-84.23,54.19,11955,2015-10-08 14:46:11:909,1
-0.249,9.4619,0.8428,-0.7109,9.7719,0.4178,0.4361,-0.2527,0.588,-0.0277,-0.017,0.1768,2.5,-41.5,22.25,242.32,-84.99,62.71,12055,2015-10-08 14:46:12:009,1
-0.4405,9.0788,0.8236,-0.7283,9.77,0.4317,0.2971,-0.6894,0.3679,-0.147,0.0064,-0.0767,2.75,-42.25,22.25,241.66,-85.23,61.78,12155,2015-10-08 14:46:12:109,1
-0.4022,9.0405,0.6704,-0.7032,9.7718,0.4332,0.3021,-0.7311,0.234,-0.0085,0.0107,0.0256,3.75,-41,22,241.91,-84.98,59.68,12255,2015-10-08 14:46:12:209,1
-0.2682,9.1937,0.5171,-0.6373,9.7767,0.4254,0.4001,-0.5251,0.2164,-0.0362,0.0021,0.0959,2.5,-40.75,22.25,238.26,-85.36,57.73,12356,2015-10-08 14:46:12:310,1
-0.2682,9.4236,0.4214,-0.5468,9.7827,0.4127,0.3237,-0.3571,-0.0029,0.0021,0.0149,0.0831,2.25,-40.75,22.75,233.36,-85.68,54.49,12455,2015-10-08 14:46:12:409,1
-0.4214,9.0788,0.249,-0.5091,9.7866,0.3668,0.0686,-0.6694,-0.0603,0.0149,-0.0341,0.0618,1,-40.25,22.5,230.83,-86.19,53.42,12555,2015-10-08 14:46:12:509,1
0.1149,9.232,0.4597,-0.4188,9.7919,0.3381,0.5721,-0.5407,-0.0891,0.0831,0.0107,0.0874,1.25,-40.75,22.5,231.71,-86.67,53.83,12655,2015-10-08 14:46:12:609,1
0.5555,9.5385,0.0575,-0.3565,9.7957,0.2967,0.8928,-0.2189,-0.2393,0.0277,-0.017,-0.0043,0.5,-40.25,23.5,231.81,-86.85,51.09,12755,2015-10-08 14:46:12:709,1
1.6089,9.5193,0.6321,-0.2731,9.7951,0.3901,1.8628,-0.2566,0.3377,-0.049,0.017,-0.1001,2.25,-41,22.75,231.46,-87.29,50.23,12855,2015-10-08 14:46:12:809,1
1.1301,8.849,0.0575,-0.2129,9.7965,0.3908,1.1897,-1.1008,-0.2567,-0.0852,-0.0639,-0.0874,2,-40.25,23,217.25,-87.16,32.75,12955,2015-10-08 14:46:12:909,1
0.2682,8.6,0.3448,-0.133,9.7975,0.4017,0.2862,-1.2933,-0.3634,-0.0298,-0.3388,0.2322,2,-40.75,23,205.86,-87.33,22.93,13055,2015-10-08 14:46:13:009,1
-0.8236,8.4084,0.2682,0.0894,9.7993,0.3688,-1.2004,-1.3526,-0.2155,-0.3302,-0.686,0.5752,2.5,-40,22.25,191.88,-88.28,4.75,13155,2015-10-08 14:46:13:109,1
-0.5555,9.5002,0.3831,0.6314,9.7829,0.257,-1.3401,-0.3019,0.0495,0.0298,-1.0802,0.7627,1.75,-39,23,135.52,-86.81,-53.18,13255,2015-10-08 14:46:13:209,1
-1.1875,10.9176,1.0726,1.3474,9.7113,0.2136,-2.5349,1.2063,0.859,0.0128,-0.6306,0.8522,1.5,-38.75,22.75,118.58,-83.15,-76.47,13355,2015-10-08 14:46:13:309,1
-2.5474,11.6646,2.3559,1.5058,9.6627,0.7318,-4.0533,2.0019,1.6241,-0.3792,0.2578,0.3728,0,-39.25,23.25,117.36,-80.49,-76.89,13455,2015-10-08 14:46:13:409,1
-2.5091,11.0708,1.2067,0.3307,9.7743,0.7236,-2.8399,1.2965,0.4831,0.669,1.4828,-1.0738,-2,-39,23,138.4,-82.14,-45.22,13555,2015-10-08 14:46:13:509,1
-1.4748,11.3198,1.245,-1.0751,9.7475,-0.0258,-0.294,1.7109,1.2902,0.7926,1.3039,-1.6022,-2,-39.75,22,240.24,-86.02,71.64,13655,2015-10-08 14:46:13:609,1
-3.122,11.3198,-0.9002,-2.3368,9.5054,-0.5973,-0.7852,1.8144,-0.3029,-0.3089,1.159,-0.9737,-1,-38.25,23.5,262.32,-77.72,104.48,13755,2015-10-08 14:46:13:709,1
-0.9577,9.5385,-0.3448,-2.8477,9.3738,-0.4394,1.8901,0.1647,0.0946,-0.1108,0.1172,-0.2578,1.75,-38.75,26,261,-75.76,104.34,13855,2015-10-08 14:46:13:809,1
5.114,6.7804,-2.0877,-1.9738,9.5956,-0.4457,7.0878,-2.8152,-1.642,-1.5809,0.081,1.0163,4.75,-39,26.25,267.98,-74.92,100.38,13955,2015-10-08 14:46:13:909,1
4.3287,6.7229,1.6855,-0.5277,9.7911,0.1595,4.8564,-3.0682,1.5261,1.485,-1.5574,0.5838,4.5,-41,25.5,253.97,-84.42,71.37,14055,2015-10-08 14:46:14:009,1
3.486,7.7764,-0.6704,0.3312,9.7851,-0.5593,3.1769,-1.863,0.1994,0.0128,-0.2812,0.963,3.25,-43,23,19.18,-86.86,-170.19,14156,2015-10-08 14:46:14:110,1
2.7773,7.6423,-1.1301,1.2539,9.683,-0.9149,1.5233,-2.0407,-0.2151,0.3707,0.0021,0.7393,-1.25,-41,26,37.1,-86.2,-149.36,14255,2015-10-08 14:46:14:209,1
2.739,8.1786,-0.6129,1.7632,9.6083,-0.8611,1.129,-1.334,0.2865,-0.2088,0.1321,0.1001,-3.5,-38.75,27.5,66.86,-78.85,-121.92,14355,2015-10-08 14:46:14:309,1
4.3287,8.734,-1.3791,1.8533,9.584,-0.9398,2.5301,-0.8655,-0.4933,0.1129,0.147,-0.3941,-5,-38,28.75,71.38,-78.46,-116.03,14455,2015-10-08 14:46:14:409,1
2.7773,8.1211,0.498,1.5056,9.6824,-0.3921,1.9037,-1.5613,0.8518,-0.7095,0.2557,-0.7372,-6.25,-38.25,29.25,70.48,-79.72,-110.78,14555,2015-10-08 14:46:14:509,1
2.375,7.1826,0.7087,0.849,9.7685,0.1585,1.1621,-2.0496,1.4696,0.0831,0.147,-0.6221,-5.75,-39,27.75,88.79,-83.98,-87.37,14655,2015-10-08 14:46:14:609,1
0.0192,9.1554,0.9577,0.5746,9.7754,0.5313,-0.5062,-0.613,0.2712,-0.6519,0.1108,-0.3537,-3,-39.5,25,100.06,-85.59,-75.61,14755,2015-10-08 14:46:14:709,1
-2.8539,10.6686,0.5938,-0.0027,9.7649,0.9035,-2.9134,0.8977,-0.2413,-0.6647,-0.098,-0.3601,-1.75,-41.25,23.75,157.35,-85.01,-21.08,14856,2015-10-08 14:46:14:810,1
-2.8156,10.2855,0.1724,-0.3368,9.756,0.9365,-2.4119,0.5383,-0.8274,-0.392,0.0234,0.081,-0.5,-40.75,22,190.45,-84.23,12.35,14956,2015-10-08 14:46:14:910,1
-3.4285,9.6726,0.1532,-0.5478,9.7496,0.9029,-2.8797,-0.0755,-0.7658,0.1087,-0.1193,0.2045,1,-41.25,21.75,202.55,-83.39,24.53,15055,2015-10-08 14:46:15:009,1
-1.9728,9.481,0.5171,-0.5541,9.7615,0.7595,-1.4187,-0.2804,-0.2423,-0.245,-0.2855,0.1981,0.5,-41.75,20.75,208.38,-83.82,31.25,15155,2015-10-08 14:46:15:109,1
-0.996,9.7492,1.0151,-0.5153,9.7524,0.8916,-0.4625,0.0356,0.1751,-0.049,0.032,0.0554,1.25,-40.75,20.5,208.05,-84.24,30.48,15255,2015-10-08 14:46:15:209,1
-0.3065,9.6726,0.7853,-0.4918,9.7551,0.8752,0.1744,-0.1767,0.0398,-0.1257,-0.081,0.1364,1.25,-40.75,21.25,207.22,-83.98,29.74,15355,2015-10-08 14:46:15:309,1
-0.4405,9.2512,1.0726,-0.4943,9.754,0.8861,0.0921,-0.4262,0.1482,0.049,-0.0213,-0.0831,0,-41,20.25,203.16,-83.96,27.92,15455,2015-10-08 14:46:15:409,1
-0.4597,9.1746,0.8811,-0.579,9.7504,0.8745,0.1193,-0.5375,0.0065,0.0128,0.0383,-0.0128,0,-41,21,206.5,-83.85,31.72,15555,2015-10-08 14:46:15:509,1
-0.1532,9.1937,1.0918,-0.5577,9.7528,0.8621,0.4236,-0.5973,-0.0576,0.0383,0.1087,0.0192,-0.5,-41.5,20.75,207.77,-83.96,33.14,15655,2015-10-08 14:46:15:609,1
-0.1341,9.0597,0.9002,-0.5477,9.7528,0.8681,0.4158,-0.6928,0.0299,-0.066,-0.017,-0.0043,0,-41.5,20.5,207.48,-83.99,32.9,15755,2015-10-08 14:46:15:709,1
-0.0575,9.1937,0.6321,-0.493,9.7597,0.8214,0.4302,-0.5657,-0.1964,0.1321,-0.0107,-0.0575,0.5,-41.25,20.5,209.36,-83.99,32.25,15855,2015-10-08 14:46:15:809,1
0.5746,9.3853,0.6129,-0.3681,9.763,0.8475,0.9685,-0.3775,-0.2258,-0.0831,-0.0511,0.0277,1.25,-41.5,21,205.74,-84.42,27.63,15955,2015-10-08 14:46:15:909,1
1.494,8.9639,0.7278,-0.2761,9.7659,0.8488,1.751,-0.7254,-0.1209,-0.1577,-0.1449,-0.1491,0.75,-41.75,21.25,200.12,-84.77,20.91,16055,2015-10-08 14:46:16:009,1
1.8004,8.5425,1.4365,-0.1278,9.7583,0.964,1.9282,-1.2158,0.4725,-0.1832,-0.2514,0.0831,0,-41.25,20,192.25,-84.61,14.54,16156,2015-10-08 14:46:16:110,1
0.3256,8.0254,1.1875,0.2225,9.7342,1.1687,0.1031,-1.7089,0.0188,-0.2237,-0.3132,0.1875,0.5,-42.25,20.25,180.4,-83.68,-2.37,16255,2015-10-08 14:46:16:209,1
-0.8045,8.7532,0.1341,0.7447,9.735,0.9198,-1.5491,-0.9818,-0.7857,0.3643,-1.0717,0.7436,0.25,-41,19.5,173.62,-83.03,-10.78,16356,2015-10-08 14:46:16:310,1
-0.8619,11.0899,1.1301,1.6159,9.645,0.7297,-2.4778,1.4449,0.4003,0.1917,-1.2826,1.0504,0,-41.25,20.25,133.53,-80.83,-59.9,16455,2015-10-08 14:46:16:409,1
-1.6472,12.22,2.3559,2.0177,9.5722,0.6865,-3.6649,2.6478,1.6694,0.0128,-0.4048,0.1108,-1.75,-40.25,21.75,120.62,-77.81,-73.16,16555,2015-10-08 14:46:16:509,1
-2.4325,12.2775,3.3327,1.2147,9.6909,0.8841,-3.6472,2.5866,2.4487,0.1278,0.9012,-0.9097,-3.75,-39.25,22,120.87,-79.06,-65.1,16655,2015-10-08 14:46:16:609,1
-1.9537,11.224,2.1452,-0.2356,9.7742,0.7619,-1.718,1.4498,1.3833,0.6115,1.9963,-1.4445,-2.5,-39,22.25,160.59,-84.77,-17.2,16755,2015-10-08 14:46:16:709,1
-2.4325,10.6494,0.7661,-2.2174,9.5526,-0.0269,-0.7706,0.6562,0.7547,-0.147,1.9494,-1.4956,-2.25,-39.75,22.75,220.42,-84.33,54.69,16855,2015-10-08 14:46:16:809,1
-3.486,9.7683,-0.1149,-3.2272,9.2565,-0.2691,-0.2588,0.5118,0.1542,0.2301,0.4453,0.2876,0.75,-38.5,24.75,250.09,-72.11,94.13,16955,2015-10-08 14:46:16:909,1
0.1149,10.1514,0.5746,-3.0513,9.311,-0.4057,3.1662,0.8404,0.9803,0.4069,-0.0874,1.0354,4.75,-40.5,25.25,261.03,-71.39,100.64,17055,2015-10-08 14:46:17:009,1
3.3519,5.7269,2.3942,-1.6566,9.6649,0.1261,5.0085,-3.938,2.2681,-1.4637,-0.6946,0.8139,5,-40.75,25.25,266.91,-78.07,95.36,17155,2015-10-08 14:46:17:109,1
5.5929,6.0908,0.747,0.014,9.8065,0.0444,5.3391,-3.5223,0.6782,0.1768,-1.2528,1.4956,1.5,-42,23.75,268.21,-86.74,89.15,17255,2015-10-08 14:46:17:209,1
3.8499,7.9487,1.3408,1.3827,9.7049,0.2724,1.8601,-2.1617,1.7563,-0.7606,0.2131,1.0418,-2.5,-42.5,24.5,96.78,-83.78,-89.04,17355,2015-10-08 14:46:17:309,1
3.1412,7.9679,-0.4788,2.0323,9.5937,0.027,1.8942,-0.9938,-0.4101,0.4218,-0.1065,0.4155,-6.5,-41.75,24.5,100.1,-79.06,-84.32,17455,2015-10-08 14:46:17:409,1
4.1755,8.7532,0.1532,2.187,9.5596,-0.0237,2.2183,-1.0554,-0.0721,0.0831,0.2024,-0.4879,-8.25,-40.25,24.5,92.82,-76.94,-90.03,17555,2015-10-08 14:46:17:509,1
3.62,8.2552,0.0575,1.5151,9.6877,-0.1495,2.1049,-1.4325,0.207,-0.017,0.767,-1.0525,-8.5,-40.75,25.5,83,-79.51,-96.09,17655,2015-10-08 14:46:17:609,1
1.0534,8.6191,0.3831,0.7254,9.7795,-0.0678,0.328,-1.1604,0.4508,-0.1747,0.1726,-0.7542,-5.25,-41,25.5,83.12,-81.07,-95.64,17755,2015-10-08 14:46:17:709,1
-0.5555,8.4084,1.1684,0.1555,9.8021,0.2533,-0.7109,-1.3937,0.9151,-0.8181,-0.13,-0.3494,-3.75,-40.5,25.25,91.05,-88.23,-82.66,17855,2015-10-08 14:46:17:809,1
-1.1684,8.983,1.6281,-0.159,9.7771,0.744,-1.0094,-0.7941,0.8841,-0.441,-0.179,0.1385,-1.5,-40.25,23.5,178.38,-87.31,0.64,17955,2015-10-08 14:46:17:909,1
-0.3831,9.2895,0.9002,-0.2545,9.7792,0.6875,-0.3813,-0.486,0.1994,0.0895,-0.3728,-0.0128,0.5,-42.5,22.5,198.63,-85.44,18.74,18055,2015-10-08 14:46:18:009,1
-4.7884,9.4236,-0.1915,-0.4463,9.7356,1.0903,-4.2895,-0.3096,-1.281,0.0107,-0.2961,0.0405,2.25,-42.25,21.5,201.31,-85.19,24.57,18155,2015-10-08 14:46:18:109,1
-2.9305,10.6877,1.0534,-0.5334,9.704,1.3112,-2.4089,0.9785,-0.223,0.4091,-0.5646,0.3622,3.25,-41.75,20.25,203.9,-81.7,22.13,18255,2015-10-08 14:46:18:209,1
-0.1532,10.7643,1.3024,-0.24,9.7332,1.174,0.0644,0.9776,0.1576,0.3004,-0.3835,0.1172,1.25,-42,19.5,192.59,-82.74,12.94,18355,2015-10-08 14:46:18:309,1
-0.5363,9.5577,0.9194,-0.3053,9.7459,1.0464,-0.0586,-0.2074,-0.0887,-0.228,0.0128,-0.0149,0,-43,20.25,192.84,-83.49,15.87,18455,2015-10-08 14:46:18:409,1
-0.1532,9.2895,1.245,-0.3335,9.7356,1.1304,0.0079,-0.4844,-0.0961,-0.1385,0.1023,0.0277,0.75,-43.25,20.75,195.5,-83.1,16.44,18555,2015-10-08 14:46:18:509,1
0.1724,9.2703,0.8811,-0.3476,9.7396,1.0903,0.52,-0.4693,-0.2093,-0.147,0.0682,0.1321,0.75,-41.75,20.5,196.75,-83.05,17.91,18655,2015-10-08 14:46:18:609,1
0.1915,9.0597,0.8811,-0.347,9.7457,1.0355,0.6152,-0.6094,-0.1735,-0.017,0.0511,0.0085,1.5,-42.25,20.5,199.73,-83.44,18.58,18755,2015-10-08 14:46:18:709,1
0.0766,9.1363,0.747,-0.3226,9.7523,0.9791,0.3992,-0.616,-0.213,0.1236,0.115,-0.0043,0.5,-42.25,20,196.97,-83.85,17.78,18856,2015-10-08 14:46:18:810,1
0.249,9.232,0.6704,-0.2631,9.7547,0.9734,0.5312,-0.5226,-0.2648,-0.0852,-0.0405,0.0021,0,-40.75,20.5,193.85,-84.1,16.54,18956,2015-10-08 14:46:18:910,1
0.2298,9.1937,0.9768,-0.1831,9.7543,0.995,0.413,-0.5223,0.001,-0.0724,0.0192,0.1193,0,-42.75,20.5,190.16,-84.09,12.24,19056,2015-10-08 14:46:19:010,1
0.2107,9.2129,0.8619,-0.0643,9.7558,0.9955,0.275,-0.5429,-0.1336,-0.0362,-0.0554,0.0426,0,-41.25,20.5,187.26,-84.04,8.69,19154,2015-10-08 14:46:19:108,1
0.7278,9.3087,1.0343,-0.0447,9.7546,1.0082,0.7725,-0.4459,0.0261,0.1001,-0.1683,0.0724,-0.75,-41.5,20.75,179.85,-84.06,2.55,19255,2015-10-08 14:46:19:209,1
1.6664,9.0214,1.0726,-0.0209,9.7598,0.9574,1.6873,-0.7384,0.1152,0.0085,0.0256,-0.1662,-1,-41.5,20.75,177.9,-84.17,0.21,19356,2015-10-08 14:46:19:310,1
1.6664,7.9871,0.8619,-0.0343,9.7585,0.9695,1.7006,-1.7715,-0.1076,-0.0682,-0.2706,-0.1747,0.5,-41.5,20.25,184.08,-84.32,2.03,19455,2015-10-08 14:46:19:409,1
0.4597,8.5808,0.4022,0.0373,9.7808,0.71,0.4223,-1.2,-0.3077,0.4218,-0.7904,-0.2152,0.75,-41.25,20.75,179.75,-85.84,-3.01,19555,2015-10-08 14:46:19:509,1
-1.1109,9.481,-0.0383,0.1988,9.8024,0.209,-0.9116,-0.2995,0.0997,0.5859,-0.7947,0.2131,2.25,-39.75,22.5,143.14,-88.31,-43.57,19656,2015-10-08 14:46:19:610,1
-1.8579,9.7109,0.7661,0.5314,9.7918,0.0953,-2.3871,-0.0789,0.6711,-0.098,-0.7329,0.6093,2.75,-40.25,24,112.11,-86.84,-79.83,19755,2015-10-08 14:46:19:709,1
-1.7813,10.4962,0.4788,0.8933,9.7652,0.1113,-2.6745,0.7309,0.3676,-0.3238,-0.2237,0.7499,2,-39.25,25,109.37,-84.73,-82.9,19855,2015-10-08 14:46:19:809,1
-3.1795,11.4156,0.1341,1.0781,9.7388,0.4056,-4.2576,1.6768,-0.2715,-0.5475,0.5944,0.2876,-0.25,-38.25,24.75,111.64,-83.86,-79.26,19955,2015-10-08 14:46:19:909,1
-3.1987,11.1857,1.5897,0.5118,9.7666,0.7223,-3.3749,1.3377,0.942,0.1491,0.9907,-0.588,-2.5,-39,23.5,135.97,-83.87,-48.42,20056,2015-10-08 14:46:20:010,1
-2.2218,12.1242,1.9154,-0.6884,9.7657,0.5725,-1.2075,2.1009,1.947,-0.0724,1.8706,-1.0056,-3,-39.25,22.5,191.03,-86.36,17.15,20155,2015-10-08 14:46:20:109,1
-3.1412,10.8026,-0.0958,-2.3645,9.5055,-0.4738,-1.7077,0.6262,0.9091,1.6426,1.3209,-1.1228,-0.25,-40.25,23,235.93,-80.69,71.31,20254,2015-10-08 14:46:20:208,1
-0.3448,8.9447,0.4788,-2.8638,9.3228,-1.0271,2.519,-0.378,1.5059,0.3686,0.0597,-0.1023,1.75,-40,26.25,264.54,-71.93,109.73,20354,2015-10-08 14:46:20:308,1
4.5969,7.5465,0.498,-2.3165,9.5096,-0.6094,6.7684,-1.8307,1.4349,-0.5433,-0.1598,0.4517,1.75,-38.5,27.5,268.1,-73.95,106.84,20455,2015-10-08 14:46:20:409,1
4.1946,5.4013,-0.4788,-1.0549,9.7391,-0.4557,4.9776,-4.5808,-0.2071,0.963,-1.2698,1.5894,3,-41,26.75,270.43,-75.86,104.74,20555,2015-10-08 14:46:20:509,1
5.861,7.8147,-2.739,1.0367,9.6796,-1.184,4.6703,-1.1312,-1.1921,-0.4985,-0.1747,1.5681,1.5,-38.75,27.25,23.16,-83.91,-164.64,20655,2015-10-08 14:46:20:609,1
3.3327,7.2401,-1.2641,1.8842,9.6048,-0.6066,0.4893,-2.948,0.6335,0.4985,0.1619,-0.0192,-4.25,-37.75,29,81.02,-78.08,-107.02,20755,2015-10-08 14:46:20:709,1
4.1755,8.8873,-2.2601,1.6702,9.6201,-0.9136,2.2826,-0.6381,-1.4185,0.228,0.3771,-0.5603,-7.75,-37.5,27.25,60.72,-78.26,-117.01,20855,2015-10-08 14:46:20:809,1
3.1987,8.1211,-0.2682,1.0651,9.742,-0.3602,1.3944,-1.5265,0.404,-0.6413,0.4559,-1.0035,-8,-37,27.25,55.19,-78.81,-118.68,20956,2015-10-08 14:46:20:910,1
0.9385,8.8298,-0.1532,0.3656,9.7998,-0.0202,0.4469,-1.1073,0.293,-0.4602,0.2301,-0.5923,-6,-38.25,25,74.79,-86.81,-96.3,21055,2015-10-08 14:46:21:009,1
-0.9577,8.9256,0.1724,-0.1475,9.8,0.3302,-0.8602,-0.7573,-0.0419,-0.49,0.066,-0.3899,-3.5,-40,23.75,156.55,-88.54,-17.28,21155,2015-10-08 14:46:21:109,1
-1.5706,9.1171,2.1452,-0.3733,9.7506,0.9779,-0.0058,-0.4963,1.6173,0.1683,-0.2898,-0.1406,-1.75,-41,23.5,199.71,-86.79,28.59,21255,2015-10-08 14:46:21:209,1
-1.4557,9.3278,1.6281,-0.539,9.7315,1.0852,-1.7549,-0.2773,0.6754,0.0256,-0.424,-0.1257,0,-40.25,21.25,202.31,-83.82,26.65,21355,2015-10-08 14:46:21:309,1
-4.5777,9.8258,0.1532,-0.9171,9.7027,1.0892,-3.8138,0.1614,-0.9934,-0.0192,-0.3814,-0.0575,0.75,-41,20.25,204.23,-82.29,27.48,21456,2015-10-08 14:46:21:410,1
-3.2944,9.4236,0.5555,-1.0596,9.6736,1.2124,-2.2349,-0.25,-0.657,-0.0618,-0.5689,0.0341,3,-41.5,20,215.43,-81.18,39.89,21555,2015-10-08 14:46:21:509,1
-1.7238,9.4044,0.6321,-1.0485,9.6694,1.2548,-0.6754,-0.2649,-0.6228,0.1278,-0.2684,0.1108,2.5,-40.75,18.75,217.41,-80.01,41.08,21655,2015-10-08 14:46:21:609,1
-1.5897,9.347,1.4557,-0.9539,9.6723,1.3064,-0.4924,-0.3044,0.2437,-0.1726,-0.0682,0.1321,2.5,-42,18.25,214.27,-80.4,39.88,21755,2015-10-08 14:46:21:709,1
-0.7087,9.5768,1.2067,-0.8428,9.6785,1.3369,0.3673,-0.123,-0.0474,-0.0064,0.032,0.0874,1.25,-40.5,18.5,207.5,-80.62,33.3,21854,2015-10-08 14:46:21:808,1
-0.6512,9.2703,1.5514,-0.8497,9.6806,1.3167,0.149,-0.3925,0.1415,-0.0085,0.0746,-0.1193,1.75,-41,19,209.49,-80.93,32.79,21955,2015-10-08 14:46:21:909,1
-0.7853,9.347,1.4557,-0.9957,9.6731,1.269,0.4027,-0.2517,0.1508,0.0746,-0.032,-0.1726,1.5,-42.5,18.75,212.06,-80.82,36.48,22055,2015-10-08 14:46:22:009,1
-0.6129,9.098,0.9194,-1.0737,9.6762,1.1785,0.269,-0.5017,-0.2392,0.0575,0.0043,-0.0362,1,-42.75,19.25,213.91,-80.64,42.43,22155,2015-10-08 14:46:22:109,1
-0.6129,8.8681,1.0151,-1.0516,9.6721,1.2308,0.4312,-0.8067,-0.2002,0.1768,-0.1193,-0.0064,2.25,-42,18.75,216.04,-80.62,41.89,22256,2015-10-08 14:46:22:210,1
-0.498,9.1746,1.1492,-0.9841,9.6845,1.1882,0.4595,-0.5097,-0.0624,-0.0426,-0.1321,0.1449,2.25,-41.75,18.75,214.6,-80.95,39.63,22354,2015-10-08 14:46:22:308,1
-0.1724,9.5002,1.2067,-0.8392,9.6971,1.197,0.6442,-0.2536,0.0143,-0.0597,0.1044,0.1321,2.5,-42,19.25,214.36,-81.33,35.82,22455,2015-10-08 14:46:22:409,1
0.5363,9.2512,0.8619,-0.7221,9.7168,1.1107,1.1603,-0.4828,-0.0439,0.0447,-0.0213,0.1747,2.75,-43.75,18.75,213.42,-81.91,34.43,22555,2015-10-08 14:46:22:509,1
0.8811,9.1554,0.5363,-0.5781,9.7434,0.9495,1.4579,-0.6668,-0.499,0.2173,0.0469,0.0128,3,-42,18.75,212.65,-83.13,31.6,22654,2015-10-08 14:46:22:608,1
0.8428,8.6766,0.498,-0.4691,9.7504,0.9381,1.2338,-1.2838,-0.4575,-0.0639,-0.392,0.1406,1.5,-42,19.25,207.99,-83.72,28.33,22755,2015-10-08 14:46:22:709,1
0.5555,8.2935,0.9194,-0.24,9.7449,1.072,0.7954,-1.4514,-0.1526,0.0064,-0.7776,0.2983,1,-41.5,20.25,201.55,-83.73,23.51,22855,2015-10-08 14:46:22:809,1
-0.3831,9.5577,1.3791,0.455,9.7531,0.9173,-0.838,-0.1954,0.4618,0.4218,-1.1462,0.5774,1,-40.5,20,169.81,-83.73,-15.2,22954,2015-10-08 14:46:22:908,1
-1.3982,9.845,1.1109,1.0129,9.7406,0.5155,-2.4111,0.1044,0.5954,-0.1172,-1.1462,0.7372,1.5,-40.25,20.25,134.62,-84.24,-59.14,23055,2015-10-08 14:46:23:009,1
-1.4365,11.1857,0.9002,1.336,9.7067,0.407,-2.7725,1.479,0.4932,-0.2834,-0.6754,0.522,1.25,-39.5,22,123.38,-82.09,-70.8,23155,2015-10-08 14:46:23:109,1
-0.8236,11.722,1.3216,1.3586,9.6867,0.7019,-2.1822,2.0353,0.6197,-0.115,0.4432,-0.3281,0.5,-39.25,23.25,131.04,-81.03,-62.68,23256,2015-10-08 14:46:23:210,1
-2.624,10.5728,0.7661,0.6945,9.7577,0.6894,-3.3185,0.8151,0.0767,0.3601,1.4871,-0.6115,0,-39.75,23.25,140.94,-84.27,-45.21,23355,2015-10-08 14:46:23:309,1
-3.4093,9.9024,1.7047,-0.7716,9.7516,0.6943,-2.5937,0.3646,1.0275,-0.0298,2.1199,-0.9012,0.5,-40.75,23,186.45,-86.15,7.19,23455,2015-10-08 14:46:23:409,1
-2.5666,10.8218,1.8004,-1.8226,9.6218,0.5193,-0.3917,1.388,0.8327,-0.098,1.6916,-1.1441,-0.25,-40,23,237.83,-78.86,74.1,23556,2015-10-08 14:46:23:510,1
-5.1906,11.3389,-0.2873,-3.0663,9.313,-0.1922,-1.4487,1.6573,0.6167,-0.2961,0.6626,-0.5667,0.5,-39.5,22.75,240.41,-76.62,80.67,23655,2015-10-08 14:46:23:609,1
0.1149,8.8873,0.1149,-3.2337,9.2572,-0.1328,5.0473,-0.5899,-0.6343,-0.5625,0.0064,0.7159,4,-41.25,24.25,249.66,-70.73,92.35,23755,2015-10-08 14:46:23:709,1
2.8347,6.11,0.4597,-2.1646,9.5539,0.4563,5.5592,-3.796,0.0148,-0.2663,-0.7563,1.5638,5.25,-42.75,24.75,247.63,-74.66,80.77,23855,2015-10-08 14:46:23:809,1
3.1412,6.1292,-0.4022,-0.0766,9.8055,-0.1325,4.0628,-3.9232,-0.9145,0.4708,-0.9183,1.7747,4.5,-45,22.75,249.24,-84.53,66.73,23955,2015-10-08 14:46:23:909,1
3.237,8.0445,-1.0726,1.4001,9.6968,-0.4263,3.838,-0.5808,-0.5258,-0.2684,0.2557,-0.0724,2,-43.5,24.25,93.29,-82.31,-105.37,24055,2015-10-08 14:46:24:009,1
2.739,8.2552,-1.9154,1.6323,9.6512,-0.6001,1.1066,-1.396,-1.3153,0.1811,0.0959,0.1214,-3.25,-40.75,27,82.9,-80.94,-104.66,24155,2015-10-08 14:46:24:109,1
3.3519,8.3127,-1.0918,1.7481,9.63,-0.614,1.6037,-1.3174,-0.4778,-0.4922,0.4495,-0.326,-6.75,-39,28,73.45,-79.1,-111.92,24255,2015-10-08 14:46:24:209,1
2.8539,8.3318,1.5131,1.5786,9.6755,0.2515,1.2753,-1.3437,1.2616,-1.0184,0.5198,-0.2748,-7.25,-38.75,28.5,77.73,-80.07,-101.78,24355,2015-10-08 14:46:24:309,1
1.9728,8.8298,0.5746,1.2604,9.7046,0.6347,0.2081,-0.5943,-0.4004,0.3984,0.2599,-0.3771,-6.75,-39.25,26.75,113.01,-81.21,-63.67,24455,2015-10-08 14:46:24:409,1
0.9194,9.3087,0.9385,0.917,9.7576,0.346,0.0024,-0.4489,0.5925,-0.3388,-0.1257,-0.1704,-6.5,-40.25,24.25,111.28,-82.55,-65.97,24555,2015-10-08 14:46:24:509,1
0.2298,8.6383,2.0303,0.4063,9.7787,0.6179,-0.4572,-0.6982,0.9314,-0.1427,-0.1662,-0.5135,-5,-40.75,24.25,105.56,-84.26,-69.33,24655,2015-10-08 14:46:24:609,1
-2.1835,8.1211,1.9154,-0.0375,9.7717,0.8262,-2.146,-1.6506,1.0891,-0.4666,-0.228,-0.277,-3.25,-41.25,24,141.56,-85.67,-33.33,24754,2015-10-08 14:46:24:708,1
-2.8922,8.0828,0.8619,-0.102,9.7572,0.9786,-2.767,-1.5736,-0.356,-0.735,-0.1236,0.3515,-0.5,-40.5,23.5,178.1,-85.16,2.6,24855,2015-10-08 14:46:24:809,1
-2.5091,10.8218,1.4557,0.2055,9.7281,1.2213,-2.7146,1.0937,0.2343,-0.2812,-0.2471,0.5497,0,-41.75,22,179.73,-83.43,-0.33,24955,2015-10-08 14:46:24:909,1
-0.6512,10.6877,0.3065,0.4069,9.7406,1.0606,-1.0581,0.9471,-0.7542,-0.2812,-0.1001,0.1811,-1.5,-41.25,21.25,161.13,-83.49,-20.13,25055,2015-10-08 14:46:25:009,1
-0.0958,9.9982,0.6895,0.4078,9.7337,1.1219,-0.5036,0.2645,-0.4324,-0.2621,0.1598,0.245,-3.75,-40.25,20.75,153.8,-83.23,-20.86,25155,2015-10-08 14:46:25:109,1
1.1684,9.7109,1.0726,0.5006,9.7387,1.0383,0.6363,-0.0675,0.0728,0.196,-0.0149,0.0852,-4.25,-41,20.75,153.73,-82.96,-21.3,25255,2015-10-08 14:46:25:209,1
1.0343,9.1363,0.6895,0.5624,9.7517,0.8714,0.4719,-0.6154,-0.1819,0.0341,-0.0937,-0.1427,-4.75,-40.75,20,141.2,-83.87,-32.27,25355,2015-10-08 14:46:25:309,1
0.7087,8.9064,0.8619,0.5249,9.755,0.8577,0.2603,-0.8102,-0.0724,0.0085,0.0639,-0.066,-4.75,-40.5,21.25,141.27,-84.08,-32.07,25455,2015-10-08 14:46:25:409,1
0.996,9.2703,0.9577,0.5475,9.7551,0.8423,0.4676,-0.5039,0.058,-0.0213,0.1087,-0.0341,-4.5,-41,22.25,142.26,-84.19,-31.26,25555,2015-10-08 14:46:25:509,1
0.8619,9.347,0.6704,0.5592,9.7586,0.7923,0.3952,-0.3896,-0.1603,-0.0234,0.1513,-0.0959,-5.75,-41.25,22,136.26,-84.16,-35.63,25655,2015-10-08 14:46:25:609,1
0.8619,9.1746,0.6129,0.527,9.7604,0.792,0.3349,-0.5858,-0.1791,-0.1811,0.1108,-0.0575,-4.75,-39,22.75,139.91,-84.43,-33.64,25755,2015-10-08 14:46:25:709,1
0.9385,9.0788,0.5555,0.5519,9.7603,0.7761,0.3674,-0.7581,-0.2015,-0.049,-0.0426,-0.1875,-4.75,-38.75,22,139.16,-84.49,-34.16,25855,2015-10-08 14:46:25:809,1
1.0918,9.1937,0.3831,0.5848,9.7591,0.7666,0.5262,-0.5846,-0.3452,-0.1023,-0.0852,-0.0107,-6,-39.5,22.25,134.21,-84.36,-37.34,25955,2015-10-08 14:46:25:909,1
1.1875,9.0214,0.9385,0.6143,9.7472,0.8864,0.5883,-0.7278,0.0634,-0.066,-0.0469,0.0831,-4.75,-40.5,22.25,139.5,-83.94,-34.54,26055,2015-10-08 14:46:26:009,1
2.1261,9.232,0.2107,0.6902,9.7428,0.8782,1.4297,-0.5113,-0.6569,0.0533,0.1001,-0.0639,-5.25,-38.5,22.25,137.95,-83.44,-36.49,26155,2015-10-08 14:46:26:109,1
1.7813,8.983,0.7661,0.769,9.7368,0.8794,1.0123,-0.7538,-0.1133,-0.0746,-0.2109,-0.098,-4.75,-41,22.25,134.6,-83.46,-38.17,26256,2015-10-08 14:46:26:210,1
1.6855,8.734,0.7278,0.8389,9.7342,0.844,0.7335,-1.0179,-0.057,-0.0234,-0.4368,0.1214,-4.5,-40,22.25,135.14,-82.99,-43.23,26354,2015-10-08 14:46:26:308,1
0.4022,8.2552,0.4788,1.0362,9.7266,0.6999,-0.1635,-1.4119,-0.0976,0.179,-0.9566,0.2322,-4.5,-41.25,22.25,129.17,-82.63,-50.86,26455,2015-10-08 14:46:26:409,1
-0.2107,8.734,0.3065,1.2859,9.7137,0.4006,-1.4787,-0.7939,-0.1155,0.115,-1.2442,0.6221,-3.25,-40.75,23.25,116.45,-82.8,-67.45,26555,2015-10-08 14:46:26:509,1
-0.5171,10.9559,1.2833,1.8133,9.6282,0.4248,-2.4733,1.7861,0.79,-0.1875,-1.0887,0.7457,-2.75,-41,24.75,112.8,-79.05,-76.82,26655,2015-10-08 14:46:26:609,1
-2.1261,12.4115,2.5474,1.931,9.573,0.8938,-3.9937,2.4321,1.7592,-0.3068,0.0043,0.0639,-3.75,-39.25,25,114.11,-78.26,-76.06,26756,2015-10-08 14:46:26:710,1
-1.6472,12.5456,2.624,0.9431,9.6886,1.1881,-2.5903,2.9719,1.5126,0.326,1.9132,-1.0504,-4,-40.5,23.25,141,-81.1,-38.44,26855,2015-10-08 14:46:26:809,1
-1.5706,11.6646,0.4788,-1.1903,9.7326,0.1735,-0.6908,1.7976,-0.2061,0.9779,2.122,-1.7428,-4.5,-41.75,23,214.7,-85.15,49.44,26954,2015-10-08 14:46:26:908,1
-3.5817,9.9407,1.5323,-2.611,9.4523,-0.089,-0.9707,0.4885,1.6213,0.1768,1.8046,-1.4338,-1.25,-40.25,24.75,244.82,-79.86,88.9,27055,2015-10-08 14:46:27:009,1
-3.5051,9.3661,-0.5171,-3.4042,9.1836,-0.4925,0.7349,0.6013,-0.0056,-0.8458,0.1385,-0.1321,2,-40.5,25.5,251.14,-69.47,98.23,27155,2015-10-08 14:46:27:109,1
-0.9768,9.347,1.0534,-3.1657,9.2802,-0.1626,2.1888,0.0667,1.2161,-0.0597,0.6029,0.8714,4.5,-42.5,26.75,251.44,-69.79,94.66,27255,2015-10-08 14:46:27:209,1
2.4708,5.8227,1.3982,-2.1464,9.5687,-0.0604,7.0497,-4.0141,0.4243,-0.3814,-1.2101,0.5305,3.75,-43.25,25.25,251.09,-72.37,91.43,27355,2015-10-08 14:46:27:309,1
3.5817,6.2441,0,-0.5412,9.7878,-0.2769,3.9314,-3.6778,-0.202,0.3089,-0.3281,2.1092,2.5,-41.75,25.75,258.05,-79.07,88.88,27455,2015-10-08 14:46:27:409,1
4.616,8.9064,-0.5171,1.4847,9.6452,-0.9673,3.1313,-0.7388,0.4502,-0.098,-0.3217,0.9886,-1.25,-40,28,69.36,-79.59,-123.09,27556,2015-10-08 14:46:27:510,1
2.3942,7.7381,-2.0303,1.8715,9.5651,-1.0847,0.5227,-1.827,-0.9456,0.2791,0.0831,0.1236,-6.25,-39,31.25,70.05,-78.18,-117.16,27655,2015-10-08 14:46:27:609,1
3.5817,8.849,-1.5706,1.9624,9.566,-0.9003,1.6193,-0.717,-0.6703,-1.0738,0.5071,-0.5007,-8.25,-37.75,31.75,61.55,-76.38,-121.01,27755,2015-10-08 14:46:27:709,1
3.5817,8.2935,0.249,1.4941,9.6921,0.0331,1.4555,-1.3794,0.7522,-0.7776,0.4645,-0.9438,-9.25,-36.5,30.75,71.95,-78.78,-104.43,27855,2015-10-08 14:46:27:809,1
2.0877,8.5617,0.7278,0.8029,9.7707,0.2416,0.5379,-1.1325,-0.5289,-0.6221,0.6477,-0.7883,-8.25,-39.75,28.25,93.12,-82.36,-81.11,27955,2015-10-08 14:46:27:909,1
-1.1301,7.7572,2.375,-0.0235,9.7684,0.8653,-1.4131,-1.9154,1.3757,-0.5369,-0.0256,-0.6264,-6.25,-41.75,25.75,121.73,-85.54,-49.11,28055,2015-10-08 14:46:28:009,1
-1.8771,8.4276,0.7087,-0.648,9.703,1.2656,-1.1141,-1.1988,0.2092,-0.6732,0.2535,-0.2152,-2.75,-43.75,22.5,187.75,-84.34,20.78,28155,2015-10-08 14:46:28:109,1
-2.3176,8.8681,2.1069,-0.8015,9.6427,1.596,-1.382,-0.8128,0.396,-0.522,-0.277,-0.1236,0,-44,21.5,199.85,-79.51,26.67,28255,2015-10-08 14:46:28:209,1
-2.9113,9.2703,1.7813,-0.8454,9.6366,1.6099,-2.1617,-0.3663,0.2097,-0.0405,-0.245,0.2088,0,-44,20,200.24,-79.17,27.75,28355,2015-10-08 14:46:28:309,1
-2.6815,10.3046,1.2067,-0.6447,9.6627,1.5448,-1.8262,0.7185,-0.4913,0.017,-0.3196,0.5902,-0.25,-45,20,200.03,-80.01,27.44,28455,2015-10-08 14:46:28:409,1
-1.9154,10.5536,0.1724,-0.317,9.6645,1.633,-1.1961,0.6401,-0.4647,-0.5923,-0.1385,0.4474,-0.5,-43.5,19.25,191.25,-80.96,15.1,28555,2015-10-08 14:46:28:509,1
-0.2107,10.2472,1.6664,-0.1206,9.6576,1.699,-0.1092,0.7811,-0.3391,-0.0469,-0.1981,0.017,-2.5,-43.5,18.75,183.26,-79.72,7.54,28654,2015-10-08 14:46:28:608,1
-0.0958,9.5193,1.7047,-0.0467,9.6547,1.7192,-0.0513,-0.1392,0.0072,0.2237,-0.1257,0.0064,-3.75,-44,18.75,172.52,-79.9,1.56,28755,2015-10-08 14:46:28:709,1
-0.2107,8.9639,1.5131,-0.0596,9.6697,1.6319,-0.1526,-0.7068,-0.1133,-0.0618,0.0469,0.0149,-4,-43.25,18.25,172.53,-80.18,1.71,28855,2015-10-08 14:46:28:809,1
0.4788,9.1554,1.9728,0.012,9.6642,1.6653,0.4743,-0.4905,0.3124,-0.0618,0.0937,0.0788,-4.25,-43.75,18,170.69,-80.22,-0.41,28955,2015-10-08 14:46:28:909,1
0.3065,9.0788,1.5897,0.0559,9.6647,1.6617,0.2559,-0.6059,-0.1821,-0.0618,0.0192,0.0277,-4.5,-43,18.75,170.68,-80.25,-0.78,29055,2015-10-08 14:46:29:009,1
0.3448,9.098,1.3982,0.0807,9.6732,1.6105,0.2449,-0.5177,-0.1549,-0.049,-0.0234,0.0362,-4.75,-43.5,18.75,166.9,-80.54,-2.87,29155,2015-10-08 14:46:29:109,1
0.498,9.1171,1.6664,0.1053,9.6725,1.6131,0.3927,-0.5554,0.0532,-0.0234,-0.0213,-0.0192,-4.25,-43.5,18.5,168.42,-80.51,-3.74,29255,2015-10-08 14:46:29:209,1
0.7087,9.1171,1.7047,0.109,9.6769,1.5865,0.5997,-0.5597,0.1182,0.0724,-0.0256,-0.0916,-4.5,-42.75,18.5,168.26,-80.55,-3.94,29355,2015-10-08 14:46:29:309,1
1.3599,9.7109,1.2833,0.103,9.697,1.4586,1.3565,0.1265,-0.2559,0.1811,-0.0554,-0.0192,-5,-42.25,18.5,165.61,-81.42,-4.04,29455,2015-10-08 14:46:29:409,1
1.5897,8.734,1.3216,-0.0727,9.7143,1.3407,1.6625,-0.9802,-0.0191,-0.1342,-0.2429,-0.5241,-4.25,-43,19,169.72,-82.23,-1.37,29555,2015-10-08 14:46:29:509,1
1.4557,7.9296,0.1149,-0.3774,9.7339,1.1311,1.8331,-1.8043,-1.0161,0.5092,-0.6946,-0.7159,-2.75,-43,20,187.93,-83.02,18.45,29655,2015-10-08 14:46:29:609,1
0.2682,8.3701,0.2873,-0.5452,9.7528,0.8697,0.8134,-1.3827,-0.5824,0.6818,-0.8224,-0.3324,-0.25,-41,21.25,201.82,-83.99,32.08,29756,2015-10-08 14:46:29:710,1
-1.3216,8.6766,2.0686,-0.1804,9.7581,0.958,-1.1412,-1.0815,1.1106,0.2684,-1.0844,0.5987,1.5,-41.25,23.25,215.43,-84.76,35.75,29855,2015-10-08 14:46:29:809,1
-2.1452,9.2129,1.245,0.5021,9.7473,0.9532,-2.6473,-0.5344,0.2918,-0.2173,-0.8799,0.914,2.5,-40.75,23.75,188.8,-84.64,3.03,29956,2015-10-08 14:46:29:910,1
-2.2601,11.9327,1.3024,1.2752,9.6679,1.0373,-3.5353,2.2648,0.2651,0.228,-0.718,0.9055,2,-40.75,23.25,154.63,-82.35,-35.97,30055,2015-10-08 14:46:30:009,1
-2.5091,12.967,2.3367,1.2534,9.6506,1.2109,-3.7625,3.3164,1.1259,-0.196,0.4666,-0.115,-0.75,-39.75,23.25,138.27,-79.63,-50.88,30155,2015-10-08 14:46:30:109,1
-2.241,11.6646,2.0111,-0.4469,9.737,1.0779,-2.1468,1.9345,1.0387,0.9417,2.2669,-1.5702,-3.5,-40.25,22.5,153.7,-81.35,-25.22,30255,2015-10-08 14:46:30:209,1
-3.5626,10.1131,1.6855,-2.169,9.5592,0.2969,-1.1568,0.5893,1.5348,0.5689,2.0624,-1.4722,-4,-40.25,22.5,230.18,-79.8,73.2,30355,2015-10-08 14:46:30:309,1
-5.0949,9.5577,0.4405,-3.6085,9.0949,-0.6573,-0.8608,0.848,0.8516,0.1364,0.6711,-0.8032,-0.75,-39.75,23.25,238.96,-74.32,89.66,30455,2015-10-08 14:46:30:409,1
0.3639,8.6574,0.2873,-3.7095,9.0392,-0.8388,2.4788,-0.7253,1.5405,0.0064,-0.3047,0.7755,4,-39.25,25.75,255.69,-67.18,102.74,30555,2015-10-08 14:46:30:509,1
2.5857,7.2018,0.0383,-2.2949,9.4873,-0.946,5.7898,-1.4207,1.6724,0.7329,-1.3763,1.5702,5.5,-39.5,26.75,258.91,-68.25,102.25,30655,2015-10-08 14:46:30:609,1
5.6695,6.0525,0.5746,-0.4789,9.731,-1.1175,6.1483,-3.6785,1.6921,0.6903,-1.0908,1.8301,2.5,-39.5,28.5,308.26,-81.29,131.89,30756,2015-10-08 14:46:30:710,1
5.4205,6.7995,-0.1149,1.7589,9.5548,-1.3352,3.47,-2.9276,1.4884,-0.2344,0.2471,0.995,-1.25,-37.5,31,35.59,-78.93,-150.78,30856,2015-10-08 14:46:30:810,1
4.5011,7.6423,-1.8771,2.5724,9.3857,-1.209,2.0511,-1.9274,-0.6559,-0.0874,0.6498,0.1491,-7.5,-37.75,33,69.15,-75.48,-120.13,30954,2015-10-08 14:46:30:908,1
5.7844,8.6766,-1.5514,2.252,9.5145,-0.7576,3.476,-0.816,-0.6955,-0.7904,0.6711,-0.9609,-12.5,-35,32.25,64.28,-72.97,-114.75,31055,2015-10-08 14:46:31:009,1
3.5434,8.0062,1.3791,1.264,9.7203,0.298,1.9921,-1.5992,1.4066,-0.6477,0.2514,-1.4594,-14,-36.25,31,87.11,-82.39,-76.73,31155,2015-10-08 14:46:31:109,1
1.743,7.4124,2.0111,0.3143,9.7811,0.6333,0.9115,-1.7941,0.8223,-0.4836,0.3068,-0.8501,-10.75,-39.25,26.5,97.09,-83.88,-65.84,31255,2015-10-08 14:46:31:209,1
0.0575,8.6957,0.0958,-0.3391,9.7596,0.8971,0.8945,-1.2937,-0.7056,-0.4687,0.179,-0.5561,-6,-41.75,23.5,162.42,-85.16,-2.06,31354,2015-10-08 14:46:31:308,1
-1.5514,9.9407,2.4708,-0.7068,9.6432,1.6371,-1.4959,0.3359,0.6613,-0.6924,-0.4581,-0.1214,-0.75,-43.75,21.25,192.09,-82.56,24.65,31455,2015-10-08 14:46:31:409,1
-2.0877,8.849,1.6855,-0.8053,9.5841,1.915,-1.1292,-0.0073,-0.919,-0.3878,-0.6796,0.0043,0,-45.25,18.25,195.16,-77.77,22.81,31555,2015-10-08 14:46:31:509,1
-3.4093,9.098,1.3599,-0.3618,9.5748,2.0886,-2.5455,-0.731,-0.9995,-0.2216,-0.6903,0.4261,-0.25,-44.75,17.25,188.17,-77.62,12.6,31655,2015-10-08 14:46:31:609,1
-4.2138,11.8561,1.6281,-0.1013,9.5476,2.237,-3.9401,2.5958,-0.6664,0.0234,-0.4431,0.5262,-3,-45,17.5,176.81,-76.84,4.57,31755,2015-10-08 14:46:31:709,1
-1.8771,10.6877,1.992,-0.0779,9.5699,2.1403,-1.3586,0.9454,-0.2824,0.1278,0.0597,0.098,-3.25,-44,17,174.83,-77.39,2.09,31855,2015-10-08 14:46:31:809,1
0.2107,9.1746,2.7773,-0.2358,9.6458,1.7529,0.1169,-0.1728,0.7295,0.1875,0.0937,-0.1747,-4.75,-44.5,17.75,172.94,-79.19,5.48,31954,2015-10-08 14:46:31:908,1
0.6321,8.9447,1.2258,-0.4422,9.6954,1.405,1.3145,-0.8054,0.1375,-0.0767,0.2131,-0.2258,-5.5,-43.75,19,182.06,-81.36,17.47,32055,2015-10-08 14:46:32:009,1
0.1149,8.5617,1.494,-0.688,9.6731,1.459,0.7359,-1.1285,0.0928,0.0085,0.081,-0.2898,-3.25,-44,20,189.03,-80.89,23.3,32156,2015-10-08 14:46:32:110,1
0.0383,8.9639,1.3599,-0.7162,9.6679,1.4794,0.697,-0.6864,-0.0999,0.0937,0.2301,0.032,-2.75,-44.5,21,193.3,-80.35,25.83,32255,2015-10-08 14:46:32:209,1
-0.1915,9.1746,1.2641,-0.6534,9.6752,1.4605,0.5927,-0.462,-0.2382,-0.1917,-0.0447,0.0426,-3.5,-42.25,20.75,192.21,-80.61,24.1,32355,2015-10-08 14:46:32:309,1
-0.1915,9.1363,1.5514,-0.6237,9.671,1.5012,0.4759,-0.553,0.1042,-0.0724,0.2898,-0.032,-3,-42.25,21.25,190.92,-80.46,22.56,32455,2015-10-08 14:46:32:409,1
-0.2873,9.1363,1.4365,-0.5783,9.6765,1.4837,0.291,-0.5402,-0.0472,0.0447,0.0447,0.1129,-3.25,-44,20,189.53,-80.65,21.29,32555,2015-10-08 14:46:32:509,1
-0.1149,9.1554,1.3024,-0.5238,9.6918,1.4017,0.4089,-0.5364,-0.0992,0.0746,0.0788,-0.0874,-4,-43,20.75,187.5,-81.22,20.49,32655,2015-10-08 14:46:32:609,1
0.3831,9.3087,1.3408,-0.4892,9.7004,1.3541,0.8723,-0.3917,-0.0134,0.1001,0.0192,0.0064,-4,-43,20.5,187.34,-81.26,20.28,32754,2015-10-08 14:46:32:708,1
0.6321,8.8873,1.3216,-0.3933,9.715,1.2783,1.2544,-0.8262,0.3707,-0.1001,0.0575,-0.0682,-3.75,-43,20.75,186.05,-82.13,18.44,32856,2015-10-08 14:46:32:810,1
1.245,8.7915,0.996,-0.3096,9.7283,1.1975,1.6944,-0.9367,-0.2013,-0.0447,-0.1321,-0.1534,-3.5,-44,22,187.05,-82.16,17.1,32955,2015-10-08 14:46:32:909,1
0.5746,8.2552,0.5555,-0.1315,9.7396,1.1376,0.7061,-1.4844,-0.5821,-0.0362,-0.2898,0.2216,-2.75,-43.5,22.75,183.31,-83.27,11.43,33055,2015-10-08 14:46:33:009,1
-0.0958,8.4276,0.1915,0.3057,9.764,0.8609,-0.4589,-1.2215,-0.7459,0.1875,-1.1995,0.5241,-2,-42.75,23.75,168.83,-84.4,-8.29,33155,2015-10-08 14:46:33:109,1
-0.4022,10.5728,1.0534,1.1778,9.7133,0.6596,-1.695,0.2849,0.3747,-0.1683,-1.0951,1.0802,-2.75,-42.75,24.5,130.26,-83.38,-51.38,33254,2015-10-08 14:46:33:208,1
-1.8387,12.0285,2.988,1.8893,9.5658,1.0473,-3.6132,2.2903,1.9023,-0.4985,-0.4645,0.9971,-3.75,-42.25,25,121.95,-79.28,-63.89,33355,2015-10-08 14:46:33:309,1
-2.1261,13.6374,2.7773,1.6196,9.589,1.2643,-3.7457,4.0484,1.513,0.5689,1.2783,-0.2407,-7.25,-41.75,23.75,129.61,-76.3,-58.79,33455,2015-10-08 14:46:33:409,1
-1.2641,11.0708,1.0918,0.4426,9.7628,0.8136,-1.4888,0.9253,0.1126,0.5198,2.0858,-1.4743,-7.75,-41.75,23,129.21,-82.09,-41.99,33555,2015-10-08 14:46:33:509,1
-1.743,10.4579,2.0494,-1.3595,9.7088,0.2462,-0.3834,0.749,1.8033,1.5105,0.6093,-1.8791,-7.5,-40.5,24,220.43,-84.49,62.28,33654,2015-10-08 14:46:33:608,1
-2.873,9.6917,-1.6664,-2.6002,9.4363,-0.605,0.7615,-0.2042,1.1988,-0.8607,0.6541,0.3324,-5.5,-41,25.5,233.04,-81.9,79.74,33755,2015-10-08 14:46:33:709,1
5.0182,8.5042,0.8236,-2.0967,9.5679,-0.4787,7.115,-1.0637,1.3023,0.115,-1.8003,0.0724,-2.75,-40.75,27.75,255.65,-76.01,101.88,33855,2015-10-08 14:46:33:809,1
5.4971,6.11,0.3448,-0.8255,9.7643,-0.3848,6.3226,-3.6543,0.7296,0.4495,-1.3018,1.1356,-0.5,-40.5,29.5,276.33,-82.22,106.82,33955,2015-10-08 14:46:33:909,1
6.7229,8.0637,1.8579,1.1019,9.7344,-0.4455,5.5253,-2.8008,1.7671,-0.3835,-1.1952,1.3103,-3.5,-41.75,30,321.93,-86.26,147.23,34055,2015-10-08 14:46:34:009,1
1.4365,5.6503,0.0575,1.6111,9.6716,0.1855,1.0891,-2.9428,2.3591,-0.1513,0.9033,-0.2045,-7,-41,29.75,81.14,-80.76,-102.02,34155,2015-10-08 14:46:34:109,1
3.5051,8.1977,-1.3216,1.7417,9.6413,-0.4271,1.7634,-1.4435,-0.8945,-0.1641,0.3984,-0.1811,-9,-42,29.5,74.29,-79.65,-102.88,34255,2015-10-08 14:46:34:209,1
3.9456,8.0254,0.0766,1.4523,9.6984,0.0568,2.4934,-1.673,0.0198,-0.3174,0.5816,-0.7499,-9.25,-40.5,30,83.3,-80.79,-91.95,34355,2015-10-08 14:46:34:309,1
1.9728,8.4467,0.8045,0.8741,9.7449,0.6662,1.0987,-1.2981,0.1383,-0.5028,0.5774,-0.7776,-8,-42.25,28.25,106.6,-83.24,-66.77,34455,2015-10-08 14:46:34:409,1
1.4174,7.9871,2.7773,0.2326,9.7175,1.2984,-0.0044,-1.6093,1.0664,0.196,0.098,-0.6008,-6.75,-44.25,25.25,129.51,-83.84,-43.15,34555,2015-10-08 14:46:34:509,1
0.4022,8.3318,3.1603,-0.1465,9.6641,1.6597,-0.5015,-2.0152,1.2156,-0.1236,-0.0469,-0.1193,-5,-43.25,23,160.28,-82.27,-10.16,34654,2015-10-08 14:46:34:608,1
0.1915,10.9176,2.3559,0.1208,9.6503,1.7401,0.2814,1.3247,0.3285,-0.2599,-0.1726,0.2684,-3.25,-43.25,21,177.69,-80.22,5.04,34755,2015-10-08 14:46:34:709,1
-2.6432,10.5919,1.1684,0.2514,9.6139,1.9181,-2.6457,1.0546,-0.7498,0.1427,-0.5433,0.4304,-3.25,-43.75,20.25,170.99,-79.75,-3.97,34855,2015-10-08 14:46:34:809,1
-2.2601,10.9367,1.0534,0.3045,9.6269,1.844,-2.5926,1.2911,-0.6847,0.6221,-0.343,0.2642,-4.25,-43.5,19,165.69,-79.12,-8.11,34955,2015-10-08 14:46:34:909,1
-0.2107,10.1323,0.8811,0.3631,9.7052,1.3592,-0.8221,1.0095,-0.6813,0.1065,-0.0788,0.0405,-6.25,-44,20,155.6,-81.32,-15.02,35055,2015-10-08 14:46:35:009,1
-0.3831,8.734,0.7087,0.1567,9.7222,1.2748,-0.5016,-0.8749,-0.5859,-0.0937,-0.2173,-0.3302,-6.75,-42.25,20,155.24,-81.75,-14.96,35155,2015-10-08 14:46:35:109,1
0.1724,9.2129,1.5706,0.1422,9.7143,1.3351,0.0413,-0.2727,0.302,-0.0085,-0.0107,-0.0682,-5,-42.5,19.5,164.46,-82.07,-5.68,35255,2015-10-08 14:46:35:209,1
0.4788,9.4044,1.1109,0.17,9.7204,1.2866,0.2897,-0.2202,-0.2715,-0.0298,-0.0192,0.0362,-5.5,-43.5,19.75,162.73,-82.23,-7.89,35355,2015-10-08 14:46:35:309,1
0.498,9.0788,1.2258,0.1577,9.7196,1.2941,0.302,-0.6408,-0.2598,-0.0128,0.0192,-0.1662,-5.75,-43,20.75,161.68,-82.36,-6.95,35455,2015-10-08 14:46:35:409,1
0.7278,9.1363,1.6855,0.1698,9.7148,1.328,0.558,-0.5786,0.3575,-0.0533,0.0021,-0.0426,-4.5,-43.25,20.5,166.75,-82.2,-5.93,35555,2015-10-08 14:46:35:509,1
0.3448,8.8873,1.1301,0.1852,9.7245,1.2533,0.1521,-0.9158,-0.0679,0.0405,0.0511,0.0192,-4.75,-41,19.75,163.14,-82.15,-7.2,35655,2015-10-08 14:46:35:609,1
0.249,8.8107,1.5514,0.2879,9.7217,1.2557,0.0155,-0.8118,0.3174,-0.0128,0.0767,0.1704,-5.5,-42.25,20.75,160.81,-82.77,-9.85,35755,2015-10-08 14:46:35:709,1
0.6704,9.4044,1.494,0.4433,9.7113,1.2902,0.2119,-0.3248,0.2319,0.1726,0.0043,0.0192,-5,-41.25,19.75,154.57,-81.98,-18.03,35855,2015-10-08 14:46:35:809,1
0.8619,9.3661,1.1875,0.508,9.7123,1.2584,0.3539,-0.3462,-0.0708,0.1257,0.0788,0.0469,-4.75,-42.5,19.5,152.09,-82.02,-21.27,35955,2015-10-08 14:46:35:909,1
1.2258,9.2129,0.8619,0.5272,9.7209,1.1816,0.6986,-0.508,-0.3197,-0.066,-0.0937,-0.1129,-5.5,-41.5,19.5,150.09,-82.34,-23.26,36055,2015-10-08 14:46:36:009,1
2.2793,9.4236,1.2833,0.5836,9.7135,1.216,1.6957,-0.2899,0.0673,0.1768,-0.0682,-0.2237,-6,-41,19.75,147.11,-82.03,-24.47,36156,2015-10-08 14:46:36:110,1
2.0303,9.2895,1.1492,0.5946,9.72,1.157,1.474,-0.488,-0.0078,0.0469,-0.0618,-0.1108,-6.25,-41,20.25,144.57,-82.38,-27.2,36255,2015-10-08 14:46:36:209,1
0.9768,8.8873,1.0534,0.5229,9.7241,1.1573,0.9136,-0.4154,-0.1613,-0.1129,-0.4772,-0.3217,-5.25,-40,19.5,148.91,-82.56,-24.31,36355,2015-10-08 14:46:36:309,1
-0.6704,8.0828,1.0343,0.392,9.7391,1.08,-0.9475,-1.6371,-0.0648,0.3111,-0.7542,-0.1342,-4,-40.75,20.25,153.44,-82.6,-21.72,36455,2015-10-08 14:46:36:409,1
-2.3367,8.7149,0.498,0.5103,9.7756,0.5897,-2.6172,-1.1565,-0.0726,0.4176,-1.2123,0.3814,-1.5,-40.75,20.75,141.82,-85.44,-40.87,36555,2015-10-08 14:46:36:509,1
-3.6966,10.9176,0.4597,0.8516,9.7505,0.6112,-4.6057,1.3586,-0.1132,-0.5369,-0.6754,0.7926,0,-39.75,21.75,125.72,-85.48,-61.04,36655,2015-10-08 14:46:36:609,1
-3.9073,11.8944,3.0071,0.5469,9.6763,1.4965,-4.4734,2.2755,1.5681,-0.2109,0.9183,-0.3558,-0.5,-39.25,23.25,164.07,-80.65,-20.08,36755,2015-10-08 14:46:36:709,1
-2.4517,11.8752,1.2833,-0.7258,9.7471,0.7985,-1.6684,2.1856,0.2741,1.1761,1.6959,-1.2549,-1,-39.75,22,170.67,-81.09,-9.22,36855,2015-10-08 14:46:36:809,1
-4.2521,9.5002,-0.7853,-2.0445,9.5912,8.0000E-04,-2.0161,-0.3783,0.8611,1.534,0.7244,-1.3444,-2.5,-39.75,20.5,243.86,-77.97,89.98,36955,2015-10-08 14:46:36:909,1
1.0918,7.355,2.6432,-2.6116,9.4444,-0.3902,1.7689,-2.3959,2.3247,0.0064,-0.3047,-0.0447,-0.25,-39.5,22.5,252.37,-74.38,98.5,37055,2015-10-08 14:46:37:009,1
3.7541,8.1211,0.9194,-1.8583,9.6286,-0.0797,5.6125,-1.5075,0.9991,-0.5177,0.115,0.7137,1.25,-39.75,24.75,254.39,-76.54,96.51,37155,2015-10-08 14:46:37:109,1
5.4588,7.0294,2.3559,-0.5266,9.7901,0.2166,5.3917,-1.9371,1.6796,0.2471,-0.897,1.289,0.25,-39.5,24.75,243.04,-86.67,67.64,37255,2015-10-08 14:46:37:209,1
5.7269,5.8419,0.4405,1.4483,9.699,0.038,4.2787,-3.8572,0.4025,0.4112,-0.5454,2.0091,-2.5,-40,23.5,110.34,-86.84,-72.09,37354,2015-10-08 14:46:37:308,1
5.4396,8.2552,-0.9194,2.8718,9.3471,-0.7451,2.5678,-1.0919,-0.1743,-0.8139,0.1981,0.3196,-7.25,-38.25,24.75,94.3,-74.99,-102.2,37455,2015-10-08 14:46:37:409,1
4.0031,7.2209,-0.3065,3.116,9.2965,-0.188,0.8871,-2.0756,-0.1185,0.179,0.4304,0.1321,-11.5,-36.75,27.75,90.89,-71.58,-94.81,37555,2015-10-08 14:46:37:509,1
5.4971,7.8338,-0.2298,3.0174,9.3292,-0.1785,2.4796,-1.4953,-0.0513,-0.4559,0.7862,-0.6732,-13.5,-37,27,84.64,-72.05,-93.39,37655,2015-10-08 14:46:37:609,1
5.3439,7.604,0.6512,2.5018,9.4757,0.3496,2.842,-1.8717,0.3016,0.0618,0.5944,-1.044,-13.5,-37.25,26.75,84.64,-72.05,-93.39,37755,2015-10-08 14:46:37:709,1
1.6855,8.7532,0.4597,1.7321,9.6417,0.4557,-0.4488,-0.7161,0.4828,0.2024,0.4985,-0.6669,-13.5,-37.25,25.75,89.49,-75.07,-82.04,37855,2015-10-08 14:46:37:809,1
0.2682,9.8641,0.4022,1.1168,9.7394,0.2582,-1.0819,0.004,0.0382,-0.0724,0.1534,-0.4368,-10.75,-39.25,24.25,90.05,-81.9,-77.46,37955,2015-10-08 14:46:37:909,1
-0.996,9.6726,0.1341,0.565,9.787,0.255,-1.7716,0.0388,-0.2167,-0.2301,-0.1641,-0.3984,-9.25,-39.75,24,90.82,-83.29,-76.98,38054,2015-10-08 14:46:38:008,1
-0.4597,9.6917,0.0766,0.1247,9.793,0.502,-0.9675,-0.2737,-0.3105,-0.7904,-0.6115,-0.2961,-5.75,-40.5,24,131.5,-86.82,-38.27,38156,2015-10-08 14:46:38:110,1
-4.2329,8.5808,0.5746,-0.3103,9.745,1.0531,-4.3823,-0.8577,-0.7658,-0.4048,-0.3196,0.0575,-4,-40.5,24,177.98,-84.74,7.14,38255,2015-10-08 14:46:38:209,1
-3.3136,9.7492,0.0575,-0.3684,9.7327,1.144,-2.9153,0.0173,-1.0836,-0.0639,-0.4772,0.1726,-1.75,-40.5,23,191.42,-82.77,18.77,38355,2015-10-08 14:46:38:309,1
-0.996,10.1131,0.8811,-0.1771,9.7081,1.3755,-0.8313,0.4015,-0.4709,0.1939,-0.1257,0.1875,-0.75,-42.75,21.5,185.06,-81.86,9,38455,2015-10-08 14:46:38:409,1
-0.6704,9.5385,1.4748,-0.1223,9.7124,1.3506,-0.5506,-0.1754,0.1349,0.0575,-0.0874,-0.1491,-0.25,-42.75,20.25,184.8,-82.11,6.17,38554,2015-10-08 14:46:38:508,1
-0.0766,9.2703,1.3982,-0.1406,9.7232,1.2689,0.0547,-0.4507,0.112,0.1811,-0.032,-0.1044,-2.75,-42.25,20,177.72,-82.27,5.64,38654,2015-10-08 14:46:38:608,1
0.249,9.1363,1.4174,-0.1783,9.721,1.2808,0.4273,-0.5847,0.1366,0.1214,-0.1577,-0.0874,-3,-43.25,20,179.22,-82.46,7.54,38755,2015-10-08 14:46:38:709,1
0.1149,9.0214,1.6664,-0.1867,9.7162,1.3155,0.4166,-0.6183,0.1977,0.0874,0.0831,-0.0767,-1.5,-42.5,19.75,184.18,-82.3,8.18,38855,2015-10-08 14:46:38:809,1
0.1724,9.2512,1.4748,-0.1841,9.7245,1.253,0.4331,-0.4925,0.0303,0.1981,0.0192,0.0895,-1.25,-43.25,20,181.86,-82.21,8.08,38955,2015-10-08 14:46:38:909,1
0.1915,9.2895,1.245,-0.141,9.7377,1.1526,0.4091,-0.3907,0.0924,0.1896,-0.0554,-0.0511,-1.75,-42.5,19.5,180.88,-83.18,6.81,39055,2015-10-08 14:46:39:009,1
0.2873,9.1937,1.2833,-0.1383,9.7367,1.1609,0.4256,-0.5238,0.1798,0.0064,0.098,-0.1342,-2.5,-41.75,20.25,181.02,-83.2,6.97,39155,2015-10-08 14:46:39:109,1
0.0766,9.0788,1.1109,-0.1463,9.7378,1.151,0.2278,-0.6588,0.0744,0.1044,0.0767,0.0469,-2.5,-42.5,21,181.94,-83.1,7.83,39255,2015-10-08 14:46:39:209,1
0.2298,9.232,1.0343,-0.1761,9.743,1.1016,0.4059,-0.5109,-0.0673,0.0682,-0.0682,0.0575,-2.25,-42.5,20.75,182.21,-83.26,8.15,39355,2015-10-08 14:46:39:309,1
0.2682,9.2895,0.8619,-0.1377,9.7497,1.0467,0.4058,-0.4602,-0.1848,-0.0937,0.0213,0.0767,-1.5,-41.75,21,183.94,-83.82,7.49,39454,2015-10-08 14:46:39:408,1
0.7853,8.3701,1.3599,-0.0798,9.7459,1.087,0.4438,-1.5673,0.4836,0.0639,-0.0469,0.115,-1.5,-41.25,20.75,183.39,-83.72,6.82,39555,2015-10-08 14:46:39:509,1
2.0111,9.5385,0.3448,0.2153,9.7542,0.9895,1.8279,-0.3269,-0.5792,-0.1854,-0.0831,0.1641,-1.75,-42,21,175.83,-83.75,0.37,39655,2015-10-08 14:46:39:609,1
1.5323,8.7532,0.4405,0.4459,9.7337,1.108,1.0864,-0.9804,-0.6674,0.1364,-0.5071,-0.049,-2.5,-43,21.75,159.44,-82.8,-20.14,39755,2015-10-08 14:46:39:709,1
0.2682,8.1211,1.6664,0.6666,9.7009,1.2724,-0.511,-1.2714,0.4402,0.115,-0.5987,0.2471,-3.75,-42.25,21,154.87,-82.61,-23.13,39854,2015-10-08 14:46:39:808,1
0.1532,9.4619,0,1.0374,9.7143,0.8519,-0.9782,-0.3492,-0.5823,0.4559,-0.9651,0.3728,-4,-42.5,20.75,146.65,-81.4,-34.32,39955,2015-10-08 14:46:39:909,1
-0.6895,9.9982,0.1532,1.3586,9.6978,0.5264,-1.9948,0.1916,-0.4708,-0.2258,-0.9204,0.6711,-4.75,-40.5,22.75,112.33,-81.46,-68.82,40055,2015-10-08 14:46:40:009,1
-1.4174,11.5879,1.6089,1.7133,9.63,0.7055,-2.8817,1.7855,0.7118,-0.2216,-0.2578,0.3515,-5.75,-40.5,23.25,111.47,-79.76,-69.99,40156,2015-10-08 14:46:40:110,1
-2.0877,11.722,2.0494,1.2738,9.6979,0.7062,-3.4574,2.0816,1.3432,0.5348,0.8991,-0.5262,-5.75,-39.75,23.25,117.17,-80.2,-62.81,40255,2015-10-08 14:46:40:209,1
-2.4325,11.4156,-0.1341,-0.1761,9.8003,0.3071,-2.3139,1.3855,-0.0198,0.3622,1.9132,-1.0227,-6,-39.25,23.5,120.82,-83.09,-56.64,40355,2015-10-08 14:46:40:309,1
-1.6664,12.0859,0.747,-1.561,9.6767,-0.308,-0.1053,2.4092,1.055,1.1377,1.4232,-1.4253,-5.75,-38.5,25.25,195.52,-87.93,29.83,40454,2015-10-08 14:46:40:408,1
-3.5243,9.6343,-0.8811,-2.7601,9.3601,-0.9698,-0.5684,0.2204,0.0755,-0.2706,0.4943,-0.8373,-3.25,-37,27,261.83,-74.57,109.69,40555,2015-10-08 14:46:40:509,1
1.245,8.7915,-0.9385,-2.4858,9.4664,-0.6158,5.3249,-0.8461,-0.4464,-0.6924,0.7286,1.1803,1,-39.25,28.5,259.15,-71.99,106.27,40655,2015-10-08 14:46:40:609,1
5.9951,6.1292,-2.0877,-1.2067,9.727,-0.3144,7.1225,-3.6934,-0.8792,0.0405,-0.441,1.4637,-0.5,-41.75,27.25,258.42,-77.22,97.1,40755,2015-10-08 14:46:40:709,1
5.2864,5.4013,-0.6704,1.0115,9.7173,-0.8493,5.4929,-4.8828,0.7054,1.127,-1.3678,1.8408,-3.5,-41.25,26.75,40.06,-86.47,-137.08,40855,2015-10-08 14:46:40:809,1
5.1332,7.4699,-1.4365,2.5919,9.362,-1.3434,3.6091,-1.6961,-0.1247,-0.2322,0.1257,0.179,-6.75,-39,29.75,61.22,-78.13,-124.12,40955,2015-10-08 14:46:40:909,1
3.8499,8.0254,-1.4365,2.7169,9.3698,-0.9982,0.9273,-1.7422,-0.4995,-0.4197,0.4922,-0.1065,-11,-35.25,32,66.9,-72.65,-112.26,41054,2015-10-08 14:46:41:008,1
5.4588,8.5234,0.1915,2.4147,9.4901,-0.5263,2.6146,-0.8164,0.5076,-0.441,0.5518,-0.7798,-12.25,-35,30.75,67.66,-73.35,-109.01,41155,2015-10-08 14:46:41:109,1
3.9648,7.8338,0.3639,1.5561,9.6803,0.2007,3.105,-1.4809,0.3118,-0.6626,0.9012,-1.5063,-11.25,-38,29.25,81.65,-78.75,-91.68,41254,2015-10-08 14:46:41:208,1
1.6855,7.5848,0.8811,0.4093,9.7507,0.9631,1.2762,-2.1658,-0.082,-0.5284,0.5177,-1.4466,-8.5,-41.25,25.25,144.62,-83.87,-23.02,41355,2015-10-08 14:46:41:309,1
-1.7238,8.7149,1.2641,-0.9091,9.6456,1.5188,-1.3212,-1.6389,0.7729,-0.0213,0.2194,-0.6456,-4.5,-44.75,20.75,190.75,-80.23,25.21,41455,2015-10-08 14:46:41:409,1
-2.8156,9.3853,2.49,-1.2076,9.5966,1.6177,-2.2584,-0.601,0.4528,-0.2727,-0.0107,0.1236,-0.25,-44.75,18.5,205.19,-78.12,36.74,41555,2015-10-08 14:46:41:509,1
-2.2218,9.0597,1.7813,-1.0106,9.6242,1.5886,-1.0164,-1.1214,0.4823,-0.1726,-0.1513,0.3558,1.25,-45.5,19.25,204.85,-78.93,32.46,41655,2015-10-08 14:46:41:609,1
-2.6049,9.098,1.2641,-0.5124,9.6484,1.6784,-2.0924,-0.5504,-0.4142,0.1385,-0.424,0.8607,0,-44.25,19.5,199.42,-79.37,24.19,41755,2015-10-08 14:46:41:709,1
-1.8579,10.8601,0.747,0.293,9.6692,1.6099,-2.2582,1.177,-1.2554,-0.4922,-0.5326,0.7116,-4,-43.75,19.25,178.27,-80.98,3.66,41854,2015-10-08 14:46:41:808,1
-0.0383,10.8984,1.5131,0.7877,9.5869,1.9083,-1.0345,1.3381,-0.9368,-0.637,-0.4346,0.6349,-6.5,-42.25,19.25,157.91,-79.82,-15.54,41955,2015-10-08 14:46:41:909,1
-0.0766,10.1897,1.0918,0.9415,9.5814,1.8657,-1.0181,0.6083,-0.7739,0.3238,0.0916,0.1577,-8.5,-42.75,18.75,146.89,-76.97,-24.6,42055,2015-10-08 14:46:42:009,1
1.2258,9.73,1.8771,0.8906,9.5947,1.822,0.3353,0.1354,0.0551,0.2983,0.0533,-0.3047,-9.75,-42.25,18.25,140.12,-78.07,-26.05,42155,2015-10-08 14:46:42:109,1
1.4174,8.8107,1.5706,0.6266,9.6637,1.5461,0.7908,-0.8531,0.0245,0.1917,-0.0469,-0.3451,-8.75,-41.75,18.5,142.96,-79.6,-23.86,42254,2015-10-08 14:46:42:208,1
0.7661,8.4851,1.2067,0.4134,9.6794,1.5197,0.3527,-1.1943,-0.313,0.1193,0.081,-0.1854,-8.25,-44,19.5,150.46,-80.49,-17.01,42355,2015-10-08 14:46:42:309,1
0.6129,8.6957,1.3791,0.3822,9.6825,1.5075,0.2307,-0.9868,-0.1285,0.1193,0.0298,-0.017,-7.5,-42.5,20.25,154.11,-80.88,-14.23,42455,2015-10-08 14:46:42:409,1
0.8045,9.2512,1.3024,0.4913,9.6897,1.428,0.3131,-0.4385,-0.1256,0.0746,-0.0554,-0.0618,-7.25,-42.5,20,151.3,-81.08,-17.62,42555,2015-10-08 14:46:42:509,1
0.6321,9.232,1.3024,0.5718,9.691,1.3887,0.0603,-0.4589,-0.0863,0.1044,-0.0021,-0.0043,-7.25,-42,20.5,147.81,-81.19,-22.38,42655,2015-10-08 14:46:42:609,1
0.7661,9.2703,1.2833,0.5726,9.6952,1.3587,0.1936,-0.4248,-0.0754,0.0341,0.0383,-0.0149,-7.75,-42,19.5,147.17,-81.25,-22.68,42755,2015-10-08 14:46:42:709,1
0.9002,9.0405,1.3982,0.53,9.7003,1.3393,0.3703,-0.6598,0.059,0.1427,-0.0746,-0.0383,-7.75,-42,20.25,145.65,-81.55,-21.59,42854,2015-10-08 14:46:42:808,1
0.9577,9.1746,1.2833,0.5116,9.7034,1.3242,0.4461,-0.6437,-0.0026,0.0256,-0.0852,0.0043,-7.5,-42.5,20.5,148.46,-81.68,-21.12,42955,2015-10-08 14:46:42:909,1
1.3216,9.5768,1.1301,0.5474,9.7049,1.2985,0.5444,-0.2621,-0.0727,0.1108,-0.1768,-0.1917,-7.25,-42.25,20,146.62,-81.74,-22.86,43055,2015-10-08 14:46:43:009,1
1.494,9.3278,0.996,0.5129,9.7154,1.2324,1.0386,-0.2726,-0.1407,0.0341,-0.147,-0.3174,-7,-43.25,21,147.02,-82.18,-22.59,43155,2015-10-08 14:46:43:109,1
1.4365,8.8107,1.3216,0.3372,9.7199,1.2571,1.061,-0.8709,0.1219,0.0128,-0.1065,-0.4282,-6,-42,20.5,155.04,-82.37,-15.01,43255,2015-10-08 14:46:43:209,1
1.0534,8.6574,0.8428,0.1994,9.7268,1.2326,0.8541,-1.0694,-0.3898,0.0298,-0.2258,-0.1214,-4.75,-42.25,21,161.74,-82.68,-9.19,43355,2015-10-08 14:46:43:309,1
0.3256,8.4659,0.4788,0.1799,9.7618,0.9192,-0.0841,-1.3725,-0.6319,0.3281,-0.8117,0.1449,-2.5,-42,22.5,166.26,-84.52,-11.07,43454,2015-10-08 14:46:43:408,1
-0.2873,8.983,1.3216,0.5082,9.7593,0.8177,-0.7955,-0.7762,0.5039,0.6818,-1.0653,0.4261,-2,-42.5,22.75,148.42,-84.37,-31.86,43555,2015-10-08 14:46:43:509,1
-2.2027,10.3813,0.3448,0.9808,9.7476,0.4382,-3.1835,0.6336,-0.0935,-0.1534,-0.7222,0.6008,-2.25,-40.75,24.75,118.46,-83.71,-65.92,43655,2015-10-08 14:46:43:609,1
-3.8882,11.8752,1.6664,1.0135,9.7174,0.8457,-4.9017,2.1578,0.8207,-0.5007,0.3899,0.3345,-3.25,-41,25,132.14,-82.26,-50.16,43755,2015-10-08 14:46:43:709,1
-3.0454,12.3732,1.9345,0.2793,9.755,0.9658,-3.1715,2.5033,0.9304,0.9822,1.7683,-0.7904,-6.25,-40,23.5,153.9,-84.12,-16.13,43855,2015-10-08 14:46:43:809,1
-2.1069,12.2583,-0.0383,-1.1192,9.742,-0.103,-0.9877,2.5163,0.0647,-0.0362,1.5723,-1.4573,-6.75,-39.75,23.5,225.85,-86.07,66.56,43955,2015-10-08 14:46:43:909,1
-4.9033,8.0637,1.3982,-2.6174,9.4419,-0.4122,-2.2859,-1.3782,1.8104,0.8032,0.5028,-1.2272,-4.75,-39.25,26.25,252.28,-83.42,95.26,44055,2015-10-08 14:46:44:009,1
-1.3982,9.1171,1.5706,-2.6355,9.4458,0.0363,1.2373,-0.3287,1.5343,0.1917,-0.3217,0.865,-0.5,-40.75,27.5,252.44,-72.6,97.47,44154,2015-10-08 14:46:44:108,1
5.3439,6.6846,-1.8771,-1.7149,9.6538,-0.1817,7.0587,-2.9692,-1.6953,0.4794,-0.6626,0.6541,0.25,-42.75,27.25,251.34,-77.52,90.39,44254,2015-10-08 14:46:44:208,1
6.857,5.5929,-0.2298,-0.2894,9.8009,-0.1692,7.12,-4.0446,-0.1138,-0.0085,-0.882,1.9004,0,-41.75,27.25,269.17,-84.26,98.15,44355,2015-10-08 14:46:44:309,1
4.367,8.4276,-0.8619,1.4016,9.6953,-0.4554,3.0749,-1.2817,-0.3812,-0.5028,0.2876,0.6562,-2.75,-41,28.25,297.76,-88.04,120.31,44455,2015-10-08 14:46:44:409,1
3.371,7.4124,-1.0151,1.8826,9.6164,-0.3893,1.4884,-2.2039,-0.6258,0.0767,0.1875,0.4112,-7.5,-39.5,30.25,73.77,-81.36,-108,44554,2015-10-08 14:46:44:508,1
4.0031,8.3701,0,2.0811,9.575,-0.3982,1.922,-1.2049,0.3982,0.5007,0.3089,-0.6413,-9,-39.5,30.25,78.96,-77.72,-101.9,44654,2015-10-08 14:46:44:608,1
3.1412,7.6231,-0.6512,1.7103,9.6532,-0.2473,1.4309,-2.0301,-0.4039,-0.9545,1.208,-0.7095,-10.5,-38,31,69.41,-78.45,-105.96,44755,2015-10-08 14:46:44:709,1
1.8579,8.6574,0.9002,0.8972,9.7469,0.6035,0.9607,-1.0894,0.2967,-0.2471,0.6498,-0.686,-9.75,-39.75,29.25,89.15,-82.28,-82.02,44855,2015-10-08 14:46:44:809,1
-0.0383,9.4236,0.7661,0.4056,9.7731,0.7017,-0.4439,-0.3495,0.0645,0.098,0.081,-0.5475,-8.75,-41.5,26.75,128.03,-84.88,-39.25,44955,2015-10-08 14:46:44:909,1
-0.9385,10.1514,-1.1109,-0.0305,9.8004,0.3492,-0.7094,0.2213,-1.1073,0.3409,-0.115,-0.2003,-7.75,-42.75,24.75,159.87,-86.01,-4.58,45055,2015-10-08 14:46:45:009,1
-0.996,10.3046,0.2107,-0.2118,9.8003,0.2832,-0.7841,0.5044,-0.0725,0.0533,-0.4133,-0.1449,-5,-43.75,25.25,204.05,-87.93,36.8,45155,2015-10-08 14:46:45:109,1
-1.9537,8.8873,0.7278,-0.4238,9.7895,0.3959,-0.4572,-0.8064,0.0255,-0.2471,-0.5752,-0.2152,-3.5,-41.5,26.75,224.18,-87.37,53.26,45255,2015-10-08 14:46:45:209,1
-2.7198,8.983,0.0192,-0.6449,9.7711,0.53,-2.0749,-0.788,-0.5108,-0.3324,-0.5539,-0.1065,-1.25,-43,26.5,222.77,-85.62,49.54,45355,2015-10-08 14:46:45:309,1
-2.6049,9.73,0.2682,-0.6963,9.7501,0.7879,-1.9086,-0.0201,-0.5197,-0.032,-0.2471,0.1768,0,-42,25.25,216.23,-83.91,42.13,45455,2015-10-08 14:46:45:409,1
-0.8811,10.2089,0.8045,-0.584,9.7418,0.9626,-0.2971,0.4671,-0.1581,0.2109,-0.0107,0.3409,1,-42.75,25.75,210.87,-83.26,34.21,45554,2015-10-08 14:46:45:508,1
-0.4214,9.9599,0.9768,-0.4508,9.7507,0.9435,-0.1813,0.2666,0.0333,0.1108,0.0597,0.1854,-0.25,-42.5,24.5,201.83,-83.88,25.54,45654,2015-10-08 14:46:45:608,1
-0.4405,9.1746,0.7853,-0.4448,9.759,0.8568,0.0035,-0.5843,-0.0735,0.0405,0.1236,-0.0149,-0.75,-42.25,24.25,200.96,-84.34,26.79,45754,2015-10-08 14:46:45:708,1
-0.0958,9.0214,0.8619,-0.4339,9.7527,0.9315,0.1849,-0.7505,-0.0313,-0.0916,0.0383,0.0575,-0.5,-42.25,24.5,202.56,-84.1,26.25,45855,2015-10-08 14:46:45:809,1
-0.0766,9.0788,1.0918,-0.3886,9.744,1.0362,0.2353,-0.5694,0.113,-0.0234,0.0597,0.2045,0,-42.5,24,199.02,-83.83,22.43,45955,2015-10-08 14:46:45:909,1
-0.1149,9.1363,0.8619,-0.2547,9.7487,1.0332,0.0057,-0.6891,-0.1521,0.0383,0.0852,0.0149,-0.75,-43.25,23,190.67,-83.86,15.23,46055,2015-10-08 14:46:46:009,1
0,9.3278,0.9577,-0.1537,9.7543,1.0006,0.1537,-0.4265,-0.0429,0.0298,0.032,0.1598,-0.75,-43.75,23,186.84,-84.1,10.63,46155,2015-10-08 14:46:46:109,1
0.0383,9.3087,0.9002,-0.1134,9.7534,1.0144,0.1517,-0.4447,-0.1142,0.0597,0.017,0.0469,-2.25,-42.75,23.5,182.11,-84.09,7.25,46255,2015-10-08 14:46:46:209,1
-0.0575,9.1937,0.8045,-0.0815,9.7527,1.0239,0.0266,-0.5776,-0.2246,-0.0682,0.049,-0.032,-3,-42.75,23.75,177.82,-83.99,4.55,46355,2015-10-08 14:46:46:309,1
0.3448,9.3087,1.0918,-0.0577,9.7473,1.0753,0.4025,-0.4387,0.0165,-0.1257,0.0107,-0.2386,-2.25,-43,23.25,178.42,-83.7,3.07,46455,2015-10-08 14:46:46:409,1
0.6704,9.1171,0.9385,-0.1211,9.7435,1.1042,0.7002,-0.5343,-0.2688,-0.0724,-0.2258,-0.1065,-2.75,-43.25,23.25,177.59,-83.68,4.55,46555,2015-10-08 14:46:46:509,1
0.9768,8.7915,0.8811,-0.1263,9.7348,1.1786,1.0101,-1.003,-0.4125,-0.2514,-0.0021,0.0447,-2.25,-43,23.5,182.02,-83.36,7.18,46655,2015-10-08 14:46:46:609,1
1.2833,9.5002,1.0343,-0.0316,9.7303,1.2207,1.1611,-0.201,-0.4742,0.1236,0.0447,-0.1662,-2.25,-43,23.5,177.3,-82.85,1.48,46755,2015-10-08 14:46:46:709,1
0.6321,8.1211,1.5131,-0.0574,9.7359,1.1743,1.0305,-1.267,0.3906,0.1726,0.1662,-0.0383,-1.25,-43.5,23.75,180.29,-82.8,2.74,46855,2015-10-08 14:46:46:809,1
-0.0958,8.6191,0.1149,0.0274,9.7744,0.7938,-0.1232,-1.1553,-0.6789,0.4453,-0.6221,0.0064,-0.75,-43,23.75,176.18,-85.35,-1.98,46955,2015-10-08 14:46:46:909,1
-0.9385,9.7683,0.3831,0.2122,9.7798,0.6933,-1.1507,-0.0115,-0.3102,0.2152,-0.9417,0.2258,0.25,-42.25,25.25,164.81,-85.76,-17.02,47055,2015-10-08 14:46:47:009,1
-1.4557,10.1514,0.2298,0.3518,9.7936,0.3623,-1.9489,0.1849,-0.0534,0.1683,-1.2059,0.2131,0,-42,25.75,158.44,-86.26,-23.74,47155,2015-10-08 14:46:47:109,1
-2.624,10.3046,-0.4022,0.3729,9.7989,-0.1124,-2.8743,0.4094,-0.4522,0.2706,-0.5049,0.245,0.25,-41,27,92.53,-87.81,-90.8,47255,2015-10-08 14:46:47:209,1
-2.7581,10.5919,-0.1149,0.2867,9.7996,-0.2384,-2.9519,0.6972,0.1217,0.1321,0.0746,0.0426,1.75,-41.25,28.25,57.04,-87.82,-129.74,47354,2015-10-08 14:46:47:308,1
-3.1603,10.4004,0.498,-0.068,9.803,-0.2577,-3.0038,0.5788,0.7489,-0.0021,1.2996,-0.441,2.25,-40,29,48.37,-88.17,-139.47,47455,2015-10-08 14:46:47:409,1
-4.0797,9.9024,0.2107,-0.7131,9.7765,-0.286,-2.9087,0.1959,0.6404,-0.1939,1.8237,-0.4325,1.75,-41,29.5,297.5,-86.7,117.63,47555,2015-10-08 14:46:47:509,1
-2.4325,11.3198,2.5474,-1.3618,9.7115,0.0571,-1.2489,1.4636,1.7937,-1.0738,1.8216,-0.3665,1,-39,29.75,273.06,-82.64,99.36,47655,2015-10-08 14:46:47:609,1
-1.5706,10.9559,-0.6895,-2.5129,9.477,-0.2037,0.9074,1.469,-0.5173,0.5198,0.6775,-0.5262,-0.5,-39.25,26.5,247.03,-78.18,81.16,47755,2015-10-08 14:46:47:709,1
1.9154,8.6574,-2.2218,-2.3776,9.5033,-0.4524,4.3689,-0.8253,-1.7447,-0.995,0.1555,0.5198,0,-40.25,27.75,260.1,-75.71,100.77,47854,2015-10-08 14:46:47:808,1
4.0606,6.3207,1.4365,-1.5929,9.6759,-0.1013,5.6534,-3.3552,1.5378,0.8671,-1.3508,0.2344,1.5,-40.75,28.75,264.28,-80.63,93.64,47955,2015-10-08 14:46:47:909,1
4.616,6.4548,0.0383,-0.5858,9.7745,-0.536,5.2018,-3.3197,0.5743,0.9417,-1.1015,1.1782,-0.25,-40.75,28,306.91,-85.36,132.46,48055,2015-10-08 14:46:48:009,1
4.5011,7.8338,-2.2984,0.8866,9.6593,-1.4431,3.6145,-1.8255,-0.8553,0.5603,-0.6775,1.5169,-3.75,-38.5,32.25,9.92,-83.45,-171.7,48155,2015-10-08 14:46:48:109,1
3.1029,7.5465,0.0766,1.841,9.553,-1.2337,1.2619,-1.8915,1.0613,-0.1108,0.1491,0.1001,-6.25,-35.5,35,58.25,-76.94,-123.83,48255,2015-10-08 14:46:48:209,1
3.237,8.0062,-1.7047,2.0651,9.5384,-0.9613,0.9994,-1.4173,-0.6668,-0.2855,0.5965,-0.2557,-8.25,-36,34,65.26,-76.57,-114.96,48355,2015-10-08 14:46:48:309,1
3.7158,8.5617,-0.2298,1.8752,9.6137,-0.4798,1.6682,-1.0904,-0.0182,-0.7947,0.4453,-0.5561,-9.25,-36.5,33.5,65.13,-76.74,-113.22,48454,2015-10-08 14:46:48:408,1
3.2753,8.0828,0.0958,1.3705,9.7084,0.1954,1.9048,-1.6256,-0.0997,-0.245,0.2471,-0.7201,-9.5,-38,31.25,86.35,-80.73,-88.56,48555,2015-10-08 14:46:48:509,1
2.5666,8.7532,0.996,0.9755,9.7285,0.7581,1.5911,-0.9753,0.2379,-0.1214,0.571,-0.7201,-6.5,-39.25,27.75,116.42,-82.68,-60.3,48654,2015-10-08 14:46:48:608,1
-1.0726,9.1363,1.1875,0.3741,9.7601,0.8778,-1.4467,-0.6238,0.3097,0.2706,0.0575,-0.2855,-5.5,-41.5,25,142.27,-83.46,-32.69,48754,2015-10-08 14:46:48:708,1
-1.3791,9.481,1.6855,0.2524,9.765,0.8671,-1.0168,-0.3598,0.4959,0.1449,-0.049,-0.0916,-3.25,-41.5,24.5,150.18,-84.42,-23.08,48854,2015-10-08 14:46:48:808,1
-1.1109,9.3853,0.9385,0.169,9.7696,0.8352,-1.0805,-1.0687,0.3857,-0.2194,-0.2748,-0.0788,-2.25,-41.75,24.5,159.68,-84.72,-16.23,48954,2015-10-08 14:46:48:908,1
-1.8004,9.0405,-0.0383,0.1492,9.7708,0.824,-1.7041,-0.5008,-0.9455,0.1108,-0.1321,0.294,-3.5,-41.25,24.25,166.58,-84.64,-8.35,49055,2015-10-08 14:46:49:009,1
-1.8962,10.0365,-0.5746,0.3065,9.7808,0.6416,-2.2593,0.5606,-1.3457,-0.0149,-0.228,0.3728,-3.25,-39.75,24.75,156.29,-85.54,-19.66,49155,2015-10-08 14:46:49:109,1
-1.0918,10.3621,-0.3065,0.5425,9.7823,0.4276,-2.113,0.692,-1.0083,-0.0916,-0.1811,0.5326,-3,-39.5,25.25,135.6,-86.17,-41.65,49254,2015-10-08 14:46:49:208,1
-0.0766,9.9407,-0.2298,0.6457,9.7841,0.1573,-0.7223,0.1566,-0.3872,0.081,0.1534,0.032,-4,-40,24.75,105.87,-85.98,-71.14,49355,2015-10-08 14:46:49:309,1
-0.1915,9.232,-0.0383,0.5725,9.7896,0.0846,-0.7641,-0.5575,-0.123,-0.2301,-0.0383,0.1065,-6.25,-39.25,25.25,88.81,-86.43,-83.13,49455,2015-10-08 14:46:49:409,1
0.7087,9.5193,0.4597,0.5935,9.7873,0.1621,-0.0381,-0.2297,0.1444,0.0362,0.0064,-0.0788,-5.25,-37.5,26,99.35,-86.4,-74.72,49555,2015-10-08 14:46:49:509,1
0.996,9.1746,0.4597,0.5488,9.7875,0.2732,0.5238,-0.5171,0.2631,-0.0724,0.0554,-0.1683,-5.75,-37.5,26,105.7,-86.49,-65.97,49655,2015-10-08 14:46:49:609,1
0.9194,8.9256,0.5555,0.536,9.7856,0.3548,0.3849,-0.8605,0.2127,-0.0724,-0.0426,-0.0937,-6,-38.75,25,112.71,-86.5,-58.66,49755,2015-10-08 14:46:49:709,1
0.8236,9.0405,0.2107,0.5439,9.7849,0.3603,0.2774,-0.744,-0.1582,-0.0064,-0.017,-0.0192,-6.5,-38.5,24.75,115,-86.24,-56.5,49855,2015-10-08 14:46:49:809,1
1.2067,9.3853,0.5171,0.6203,9.7796,0.3808,0.6316,-0.3184,0.1241,-0.0511,0.0192,0.0767,-6.25,-38,25,112.26,-85.97,-59.73,49955,2015-10-08 14:46:49:909,1
1.1301,9.1554,0.5555,0.662,9.7751,0.423,0.4757,-0.6206,0.1422,-0.0447,0.0277,-0.0362,-6.25,-38.75,24.75,115.35,-85.45,-57.34,50055,2015-10-08 14:46:50:009,1
1.992,9.1363,0.8619,0.7177,9.7664,0.5219,1.0253,-0.7259,0.4549,-0.1854,-0.032,-0.0149,-6.25,-38.5,24.25,115.14,-85.09,-57.59,50155,2015-10-08 14:46:50:109,1
2.0686,9.232,-0.1149,0.7374,9.7632,0.5535,1.2737,-0.4929,-0.5918,0.1555,0.0234,-0.13,-5,-39.5,23.75,124.99,-84.29,-50.59,50255,2015-10-08 14:46:50:209,1
1.2833,8.8681,-0.0958,0.7086,9.7725,0.4076,0.5716,-0.9032,-0.5255,0.1001,-0.5135,-0.098,-5.5,-39,24.5,120.19,-84.87,-55.03,50355,2015-10-08 14:46:50:309,1
-0.0958,8.8873,-0.0575,0.8132,9.7694,0.2599,-0.909,-0.8821,-0.3173,0.1001,-1.0504,0.0916,-4.25,-39.25,25.75,110.42,-85.29,-67.35,50455,2015-10-08 14:46:50:409,1
-0.4022,9.5385,0.5746,1.0341,9.752,-0.0101,-1.4363,-0.2135,0.5847,0.2429,-0.9246,0.5241,-3,-38.25,25.75,94.86,-84.54,-86.49,50555,2015-10-08 14:46:50:509,1
-1.1684,9.3087,0.2298,1.3889,9.705,-0.2339,-2.5573,-0.3963,0.4638,0.1747,-0.7798,0.7031,-2,-38.5,26.5,88.23,-82.64,-98,50655,2015-10-08 14:46:50:609,1
-1.7813,11.0899,0.4022,1.6781,9.6614,-0.11,-3.4594,1.4286,0.5122,0.0469,-0.1491,0.3622,-3,-36.75,28,92.88,-80.28,-93.95,50755,2015-10-08 14:46:50:709,1
-2.0686,10.9559,1.3024,1.2699,9.723,0.1472,-3.3385,1.2329,1.1552,0.2067,1.7449,-0.5689,-3.75,-37.25,28.75,95.7,-81.18,-87.63,50855,2015-10-08 14:46:50:809,1
-1.7238,10.2089,1.1109,0.2161,9.8036,0.1118,-1.94,0.4052,0.9991,1.0546,1.5148,-1.2591,-3.75,-36.75,28,98.16,-82.51,-83.39,50955,2015-10-08 14:46:50:909,1
-2.1835,12.0476,-0.6129,-1.1572,9.713,-0.6985,-1.0263,2.3346,0.0856,0.2131,1.2208,-1.3785,-6.75,-37.75,26.5,285.97,-84.45,127.88,51055,2015-10-08 14:46:51:009,1
-1.2641,10.726,1.2067,-1.9653,9.5942,-0.5094,0.7012,1.1318,1.7161,-0.4325,0.0916,-0.4581,-4.75,-36.75,27.75,266.79,-78.83,111.71,51155,2015-10-08 14:46:51:109,1
0.1532,8.6957,-0.1341,-2.1715,9.5569,-0.3465,2.3247,-0.8612,0.2124,0.0128,-0.2493,0.115,-2.5,-36.75,28,256.85,-77.64,100.02,51255,2015-10-08 14:46:51:209,1
4.6543,6.608,0.6512,-1.494,9.6855,-0.3608,4.8842,-2.7135,-0.0605,-0.3558,-0.6903,1.1739,0.25,-39.25,27.25,270.32,-80.98,103.58,51354,2015-10-08 14:46:51:308,1
4.0606,6.4356,0.0192,-0.217,9.7935,-0.4599,4.2776,-3.2621,0.0385,0.5816,-0.7883,1.6831,0.25,-39.75,28,332.76,-87.03,154.74,51455,2015-10-08 14:46:51:409,1
4.7501,8.4084,-0.0766,1.6782,9.6241,-0.8544,2.7937,-1.1708,0.6852,-0.4218,-0.2407,1.2378,-0.5,-39.25,28.75,78.15,-78.93,-116.98,51555,2015-10-08 14:46:51:509,1
3.3327,7.0868,-2.2027,2.5069,9.4537,-0.7165,0.7252,-2.2447,-1.6223,0.4858,0.2834,0.6839,-4.5,-38,30.75,90,-75.75,-104.91,51655,2015-10-08 14:46:51:609,1
3.6775,7.4891,-1.0726,3.0516,9.3049,-0.5258,0.5795,-1.7961,-0.4318,-0.277,0.571,-0.0426,-8.5,-37,31,89.26,-72.09,-102.71,51755,2015-10-08 14:46:51:709,1
4.4819,8.0828,0.2682,3.0677,9.3144,0.0312,1.3568,-1.0401,-1.4869,-1.4083,0.6264,-0.5518,-11.25,-35.75,29.5,92.1,-71.77,-89.42,51855,2015-10-08 14:46:51:809,1
3.8499,8.4851,0.8236,2.5884,9.4013,1.042,1.4913,-1.0312,0.3754,-0.1427,0.3409,-0.5262,-13.25,-36.75,26.5,106.1,-73.47,-68.07,51955,2015-10-08 14:46:51:909,1
3.486,9.3661,0.3448,1.8157,9.5701,1.1341,-0.7622,-0.3572,0.494,-0.0724,0.2365,-0.848,-12,-38,22.5,109.76,-76.25,-61.79,52055,2015-10-08 14:46:52:009,1
0.5171,9.3853,1.245,1.2768,9.6606,1.1016,-0.7597,-0.2753,0.1434,-0.0874,0.049,-0.816,-9.25,-40.25,22.25,122.44,-80.1,-49.21,52155,2015-10-08 14:46:52:109,1
-0.6895,8.9256,1.6664,0.693,9.7188,1.1109,-1.5166,-0.7933,0.4405,-0.1108,-0.1768,-0.3558,-7.25,-40.5,22.25,129.77,-81.36,-38.94,52254,2015-10-08 14:46:52:208,1
0.0575,8.9639,3.1987,0.5182,9.6781,1.4955,-0.7481,-0.695,1.3201,-0.4645,-0.0234,-0.13,-4,-41,22,156.97,-80.71,-19.11,52355,2015-10-08 14:46:52:309,1
-2.5091,8.9064,0.9577,0.3519,9.6732,1.5732,-2.8611,-0.7668,-0.6155,-0.4091,0.0341,0.1427,-4,-42.25,21.25,162.09,-80.54,-12.61,52454,2015-10-08 14:46:52:408,1
-2.988,9.4236,1.0343,0.2656,9.6544,1.7006,-3.2536,-0.2308,-0.6663,0.1704,0.0959,0.6775,-3.25,-41.5,20.25,166.99,-79.89,-8.88,52555,2015-10-08 14:46:52:509,1
0.7087,10.9367,1.1301,0.6726,9.6492,1.6157,0.0361,1.2875,-0.4857,0.2429,-0.0639,0.4517,-3.25,-41.25,19.25,163.26,-79.95,-13.68,52655,2015-10-08 14:46:52:609,1
0.0766,9.6726,1.2833,0.6924,9.6637,1.518,-0.386,-0.1635,-0.3496,-0.0085,0.0895,0.049,-4,-41.25,18.75,153.26,-79.84,-24.17,52755,2015-10-08 14:46:52:709,1
0.7278,9.1746,1.4748,0.6745,9.6659,1.5118,0.13,-0.4722,0.1355,-0.0234,0.0533,-0.0937,-4.75,-40,18.25,149.81,-80.5,-24.59,52855,2015-10-08 14:46:52:809,1
0.9768,9.0214,1.6281,0.656,9.6616,1.5473,0.3256,-0.64,0.0771,-0.115,0.1065,-0.098,-6.25,-40,18.75,148.18,-80.32,-24.22,52955,2015-10-08 14:46:52:909,1
0.8619,8.8681,1.6664,0.6508,9.6553,1.5879,0.1887,-0.7879,0.0074,0.0362,0.049,0.0298,-5.5,-40.5,18.5,152.18,-80,-22.24,53055,2015-10-08 14:46:53:009,1
0.8428,9.0214,1.5897,0.6811,9.6523,1.5937,0.2383,-0.5735,-0.0423,-0.0362,0.0703,0.0703,-6.25,-40,18,150.05,-79.92,-21.78,53155,2015-10-08 14:46:53:109,1
0.8428,9.1746,1.2641,0.7348,9.6546,1.5553,-0.0069,-0.5183,-0.2337,0.0788,-0.0192,0.0341,-6,-41.25,18.5,148.45,-79.77,-24.7,53255,2015-10-08 14:46:53:209,1
0.9385,9.1746,1.3982,0.7699,9.659,1.5103,0.1686,-0.4844,-0.1121,0.0511,0.0362,0.0277,-6,-38.75,18.5,146.71,-79.9,-26.26,53355,2015-10-08 14:46:53:309,1
0.9385,9.1171,1.3408,0.7933,9.6683,1.4372,0.1452,-0.5512,-0.0964,0.0426,0.0533,-0.017,-5.5,-39,18.5,147.13,-80.32,-28.24,53455,2015-10-08 14:46:53:409,1
0.9002,9.0597,1.1301,0.8164,9.6772,1.3623,0.0278,-0.6576,-0.2204,0.0511,-0.0724,0.0767,-6.25,-40,18.25,143.41,-80.58,-29.72,53555,2015-10-08 14:46:53:509,1
1.3216,9.1363,1.3791,0.8466,9.6756,1.3553,0.4509,-0.5386,0.0598,-0.0234,-0.0746,0.032,-6.75,-39.75,18.5,139.55,-80.67,-31.91,53655,2015-10-08 14:46:53:609,1
1.8004,9.1171,1.4748,0.8422,9.673,1.3762,0.9699,-0.558,0.1064,0.0639,0.0426,-0.1577,-6.5,-40.5,18.75,142.33,-80.53,-31.47,53755,2015-10-08 14:46:53:709,1
2.3367,9.3087,1.5131,0.804,9.6669,1.4405,1.5186,-0.3577,0.0773,-0.0107,0.1577,-0.196,-6.5,-39,18.75,143.31,-80.46,-30.02,53855,2015-10-08 14:46:53:809,1
2.1452,8.9447,1.3791,0.6711,9.6823,1.4048,1.452,-0.7198,-0.133,0.4559,-0.0916,-0.2898,-5,-39,19.25,149.5,-80.27,-25.24,53955,2015-10-08 14:46:53:909,1
1.0534,8.1211,1.5131,0.5252,9.6984,1.3549,0.519,-1.5787,0.1722,-0.2407,0.0874,0.0682,-4.5,-39.5,20,151.15,-80.87,-25.54,54055,2015-10-08 14:46:54:009,1
-0.3639,8.5425,0.3831,0.5761,9.77,0.6205,-0.94,-1.2275,-0.2374,0.098,-0.8799,0.2493,-2.5,-39,19.75,148.31,-84.34,-31.64,54155,2015-10-08 14:46:54:109,1
-1.9728,9.0022,0.9194,0.9724,9.7436,0.5351,-2.9452,-0.7414,0.3843,0.0256,-1.2847,0.7478,-1,-37.25,21.5,130.28,-84.18,-54.47,54255,2015-10-08 14:46:54:209,1
-3.1795,11.7412,1.5514,1.5552,9.6413,0.8925,-4.7347,2.0998,0.6589,-0.7308,-0.5412,1.0227,-1.5,-37.25,23,130.02,-79.46,-60.15,54355,2015-10-08 14:46:54:309,1
-2.5091,13.8098,3.7924,0.7418,9.6838,1.3579,-3.2509,4.1259,2.4345,0.4474,1.5404,-0.7947,-1.25,-37.5,22,146.25,-79.32,-40.7,54455,2015-10-08 14:46:54:409,1
-3.5626,11.6837,0.0766,-1.3524,9.7115,-0.1679,-2.4209,1.7998,0.1679,0.9119,1.8216,-2.0538,-3.5,-38.25,21,234.21,-85.7,68.53,54555,2015-10-08 14:46:54:509,1
-5.114,8.7915,0.5171,-3.2037,9.2193,-0.9548,-2.6765,-0.6193,0.5335,0.5539,1.2528,-1.8024,-1.75,-35,25,257.03,-73.46,104.83,54655,2015-10-08 14:46:54:609,1
0.2682,9.4236,0.7853,-3.3133,9.1866,-0.8942,3.5814,0.237,1.6795,-0.4751,0.0639,0.522,2.5,-37.5,27,260.56,-67.73,106.76,54755,2015-10-08 14:46:54:709,1
4.6352,5.3822,0.4597,-2.2795,9.5161,-0.6463,6.9146,-4.134,1.106,0.4282,-0.8032,1.4935,3.75,-38.5,27.5,263.75,-69.52,105.1,54855,2015-10-08 14:46:54:809,1
4.367,4.3862,-0.249,-0.1136,9.7481,-1.0636,4.5572,-5.4386,1.1785,0.5859,-0.6541,2.4352,2.5,-37.25,27.75,273.91,-76.02,105.83,54955,2015-10-08 14:46:54:909,1
4.9991,7.8147,-4.4628,1.8122,9.3676,-2.2659,3.0404,-1.4092,-1.8156,0.5305,-0.4517,1.3955,-2.5,-35.25,30.25,52.42,-72.79,-141.35,55055,2015-10-08 14:46:55:009,1
4.3096,7.4316,-0.1915,2.5087,9.4325,-0.9511,1.4561,-2.1542,1.2001,0.0874,-0.0426,-0.1172,-7.75,-31,34.25,60.54,-73.15,-120.7,55155,2015-10-08 14:46:55:109,1
4.4628,8.6,-1.4748,2.1821,9.5219,-0.8616,2.2807,-0.9219,-0.6132,-0.8586,0.669,-1.0631,-11,-32.75,31.5,65.18,-74.07,-112.2,55255,2015-10-08 14:46:55:209,1
3.735,8.0445,0.1532,1.3443,9.7121,-0.1969,2.3907,-1.6676,0.3501,-0.5475,0.4922,-1.3018,-8.75,-34,29.75,66.23,-77.41,-108.5,55355,2015-10-08 14:46:55:309,1
0.4597,9.1746,0.7853,0.3563,9.799,0.1499,-0.069,-0.6628,0.4631,0.0874,0.3217,-0.6456,-6.25,-36,26.75,103.14,-87.74,-67.19,55455,2015-10-08 14:46:55:409,1
-0.0958,9.3853,0.0958,-0.3614,9.7984,0.1768,0.3422,-0.2982,-0.2534,-0.1108,0.1129,-0.5795,-2,-38.25,25.75,232.39,-88.52,58.49,55555,2015-10-08 14:46:55:509,1
-1.6281,9.3087,1.2641,-0.8685,9.7603,0.3898,-0.8744,-0.49,0.8935,-0.2834,-0.0575,-0.4005,0.75,-38,25,240.81,-84.43,65.83,55655,2015-10-08 14:46:55:609,1
-2.739,8.6957,-0.3065,-1.3835,9.7077,0.1321,-1.3306,-1.008,-0.463,-0.1598,-0.1726,-0.1811,3.5,-40,23.75,251.19,-83.43,74.07,55755,2015-10-08 14:46:55:709,1
-1.4557,8.9064,0.0958,-1.515,9.6818,0.3706,0.0593,-0.7754,-0.2749,0.1108,-0.5689,-0.2876,6,-39.75,24.25,255.85,-80.85,76.25,55855,2015-10-08 14:46:55:809,1
-3.3327,8.734,0.6704,-1.6449,9.6395,0.7386,-1.7261,-1.1161,-0.1831,-0.1875,-0.7649,-0.1342,8.25,-40,24.25,248.64,-79.4,65.82,55954,2015-10-08 14:46:55:908,1
-3.5434,9.5002,1.3599,-1.62,9.5995,1.1811,-1.9234,-0.0993,0.1788,-0.5135,-0.2003,0.3686,8,-39.75,22,246.02,-78.61,61.25,56055,2015-10-08 14:46:56:009,1
-2.7581,10.343,0.4405,-1.4167,9.6281,1.2099,-1.5211,0.6834,-0.863,0.0746,0.0767,0.343,5.5,-40.5,20.25,230.28,-79.05,49.5,56154,2015-10-08 14:46:56:108,1
-1.1109,9.9982,1.0151,-1.1604,9.6609,1.221,0.1376,0.4523,-0.4062,-0.2237,0.0426,0.1768,3.75,-40.25,19.25,227.49,-79.62,48.45,56255,2015-10-08 14:46:56:209,1
-1.1109,9.1171,1.494,-1.1166,9.6499,1.343,0.0057,-0.5328,0.151,0.0447,0.0682,0.0469,2.25,-38.5,19.5,218.78,-80.06,41.94,56355,2015-10-08 14:46:56:309,1
-0.5171,9.232,1.5131,-1.0635,9.6439,1.4261,0.3922,-0.4539,-0.065,-0.147,0.0213,0.0128,1.5,-38.25,18.75,214.06,-79.78,39.08,56455,2015-10-08 14:46:56:409,1
0.0192,9.3087,1.6472,-0.9673,9.6453,1.484,0.9864,-0.3367,0.1632,-0.0554,0.1087,-0.0554,2.5,-38.25,19.25,211.65,-79.57,35.63,56555,2015-10-08 14:46:56:509,1
-0.6321,9.0788,1.494,-0.9105,9.6538,1.4648,0.2784,-0.575,0.0292,-0.0341,0.1364,0.066,2.25,-38.75,18.75,208.39,-79.87,31.86,56655,2015-10-08 14:46:56:609,1
-0.3639,9.232,1.3791,-0.8702,9.6669,1.4013,0.5062,-0.4349,-0.0222,0.0639,-0.017,0.0937,1.25,-39,18.75,206.35,-80.32,31.84,56755,2015-10-08 14:46:56:709,1
-0.3448,9.098,1.4365,-0.8373,9.6668,1.4223,0.4925,-0.5688,0.0142,0.0533,0.1001,0.0021,1.5,-38.75,19.25,207.63,-80.31,30.49,56855,2015-10-08 14:46:56:809,1
-0.0192,9.1554,1.2833,-0.7536,9.67,1.4471,0.7345,-0.5145,-0.1638,-0.0064,0.0298,-0.0575,1,-38,19,204.47,-80.35,29.14,56955,2015-10-08 14:46:56:909,1
0.1915,8.8873,1.6089,-0.6746,9.6709,1.4794,0.8661,-0.7836,0.1295,0.049,-0.0703,0.0639,0.75,-38.75,18.75,200.83,-80.46,24.51,57055,2015-10-08 14:46:57:009,1
0.8236,9.3087,1.2641,-0.4901,9.6788,1.5006,1.3239,-0.2798,-0.2484,0.2876,-0.1939,0.0383,0.25,-37.5,18,193.75,-80.74,18.09,57154,2015-10-08 14:46:57:108,1
1.1109,8.9447,1.9537,-0.3118,9.6622,1.6476,1.2452,-0.6987,0.2113,-0.2535,-0.0234,0.0256,1,-37.25,18.5,190.43,-80.15,10.72,57254,2015-10-08 14:46:57:208,1
0.2873,8.5042,0.6321,-0.2348,9.6908,1.4845,0.4688,-1.2654,-0.7252,0.0852,-0.2322,0.0724,0.25,-36.75,19.5,190.68,-80.9,10.81,57354,2015-10-08 14:46:57:308,1
-1.0726,9.0214,-0.3256,0.1466,9.7523,1.021,-1.2152,-0.9358,-1.6956,0.2365,-1.1292,0.326,0.75,-36.5,19.5,184.49,-82.13,2.69,57454,2015-10-08 14:46:57:408,1
-1.1301,10.0173,1.6855,0.6584,9.7313,1.0188,-1.7809,-0.0209,0.6894,0.2834,-1.2847,0.8352,0,-36,21.25,167.19,-83.61,-15.16,57555,2015-10-08 14:46:57:509,1
-2.241,10.3813,2.49,1.177,9.6688,1.1401,-3.4179,0.7125,1.3499,-0.4985,-0.0618,0.4943,-0.25,-35.75,21.75,140.72,-81.73,-47.6,57655,2015-10-08 14:46:57:609,1
-3.9073,13.0053,2.2601,0.7587,9.6915,1.2922,-4.873,2.7137,0.7969,0.4069,1.4637,-0.2003,-2.25,-35.5,21.5,150.88,-81.21,-30.42,57755,2015-10-08 14:46:57:709,1
-2.8922,11.9519,-0.2298,-0.5496,9.784,0.3774,-2.3301,2.6329,0.316,1.4445,1.3955,-1.7492,-3.25,-35.75,21.25,156.86,-82.78,-19.66,57855,2015-10-08 14:46:57:809,1
-3.1603,10.7069,0.8428,-2.0484,9.5887,-0.1763,-1.1119,1.1182,1.0191,0.6711,0.5667,-1.8898,-5.25,-35,22.75,249.24,-79.9,95.52,57955,2015-10-08 14:46:57:909,1
-0.7853,9.0597,0.3639,-2.9834,9.3166,-0.6868,2.1981,-0.2569,1.0507,0.1214,1.485,1.4999,3,-35,27.25,264.67,-71.81,102.96,58055,2015-10-08 14:46:58:009,1
3.3136,7.1826,2.375,-2.3327,9.5146,-0.4489,5.6463,-2.332,2.824,0.3004,-1.029,0.5923,2.75,-36,27.25,270.46,-74.85,105.15,58155,2015-10-08 14:46:58:109,1
5.4779,5.1906,0.8619,-0.3349,9.7922,0.4125,5.8128,-4.6016,0.4494,0.1278,-0.7457,1.2826,0.5,-37.25,26,254.94,-81.63,84.23,58255,2015-10-08 14:46:58:209,1
4.9033,7.7381,0.4214,1.3995,9.7059,-0.0825,3.5038,-1.9679,0.5039,0.8543,-1.2954,1.4253,-1.5,-38,23.5,107.24,-84.68,-78.39,58355,2015-10-08 14:46:58:309,1
3.7158,7.2209,0.2682,2.4749,9.4892,0.0143,1.2409,-2.2683,0.2539,-0.2578,0.441,0.2599,-6.75,-36,24.75,91.86,-76.37,-92.08,58454,2015-10-08 14:46:58:408,1
4.2138,8.2361,-1.245,2.7365,9.4142,-0.2334,1.4773,-1.1782,-1.0116,-0.1278,0.4218,0.1385,-11.5,-34,26,83.12,-74.43,-93.66,58555,2015-10-08 14:46:58:509,1
4.6926,8.3893,0.2873,2.869,9.3765,0.1445,1.8236,-0.9872,0.1428,-0.6647,0.1619,-0.2131,-13.75,-33,25.5,79.43,-73.06,-92.25,58654,2015-10-08 14:46:58:608,1
4.8842,7.7189,1.9345,2.6307,9.391,1.0294,2.2535,-1.6721,0.9051,-0.5795,0.1534,-0.6093,-14,-32.5,24,95.34,-73.24,-74.36,58755,2015-10-08 14:46:58:709,1
1.8196,9.0214,2.0686,1.8106,9.5059,1.5904,0.755,-0.5047,-0.2058,-0.5475,-0.0554,-0.98,-12.5,-34.25,20.25,111.22,-74.43,-59.21,58855,2015-10-08 14:46:58:809,1
0.3065,8.8681,3.0646,1.0881,9.589,1.7431,-1.0434,-0.4225,1.0387,0.1001,-0.277,-0.6072,-10.25,-36.25,17.25,127.42,-77.12,-40.58,58955,2015-10-08 14:46:58:909,1
0.0383,8.7724,1.8004,0.6658,9.6406,1.6689,-1.1282,-0.4879,0.7117,-0.147,0.1662,-0.1001,-7.25,-36.5,17,137.95,-77.9,-31.97,59054,2015-10-08 14:46:59:008,1
0.1149,9.8641,-0.3065,0.536,9.6966,1.3634,-0.4317,0.1706,-1.6879,-0.4261,0.1364,-0.2493,-4.5,-38.25,18,149.79,-79.44,-21.75,59155,2015-10-08 14:46:59:109,1
-2.0111,9.5002,0.8428,0.2439,9.6973,1.4399,-2.1278,-0.3276,-0.0421,0.0575,-0.1513,-0.1534,-4.5,-38.5,18.5,161.03,-80.79,-12.71,59255,2015-10-08 14:46:59:209,1
-1.8196,9.6151,0.0766,-0.106,9.7167,1.3213,-1.7136,-0.1015,-1.2447,0.245,-0.4389,-0.1172,-4.5,-38.25,18.75,170.47,-81.58,-0.26,59355,2015-10-08 14:46:59:309,1
-3.0646,8.2169,0.5938,-0.2646,9.7241,1.2419,-2.5127,-1.5455,-1.0312,0.2578,-0.1065,0.2599,-2.25,-39,19,176.53,-82.23,4.59,59455,2015-10-08 14:46:59:409,1
0.1915,10.3238,1.2641,0.087,9.7118,1.3582,0.7175,0.9568,0.4231,-0.4495,-0.3004,0.4517,-1.75,-38.25,19.75,178.07,-82.74,3.34,59555,2015-10-08 14:46:59:509,1
0,9.979,1.4748,0.2488,9.6991,1.4266,-0.2488,0.165,-0.2008,0.0149,0.0405,-0.0298,-2,-38,20.5,170.35,-81.81,-6.5,59655,2015-10-08 14:46:59:609,1
-0.1724,8.9447,1.0918,0.1914,9.7107,1.3553,-0.3638,-0.7659,-0.2636,0.0341,-0.017,-0.1321,-3.25,-36.75,20,165.58,-81.94,-9.42,59755,2015-10-08 14:46:59:709,1
0.3639,8.9447,1.4748,0.2246,9.7072,1.3746,0.1584,-0.7242,0.1577,-0.0298,0.0703,0.0724,-4,-36.75,20,163.57,-82.02,-9.06,59855,2015-10-08 14:46:59:809,1
0.498,9.1746,1.4748,0.2876,9.6997,1.4154,0.2104,-0.5251,0.0595,0.1001,0.0298,0.1406,-3,-36.75,20.5,164.49,-81.66,-11.11,59955,2015-10-08 14:46:59:909,1
0.6512,9.3278,1.3599,0.3698,9.6973,1.4126,0.2814,-0.3695,-0.0527,0.0639,0.0469,-0.017,-3.5,-37,19.5,162.13,-81.5,-13.93,60055,2015-10-08 14:47:00:009,1
0.5746,9.1937,0.9768,0.4027,9.7124,1.2949,0.172,-0.5187,-0.3181,-0.0298,-0.0064,-0.0128,-3.5,-37.25,19,158.41,-81.55,-15.57,60155,2015-10-08 14:47:00:109,1
0.498,8.9639,1.3599,0.4271,9.7125,1.2865,0.0709,-0.7486,0.0734,-0.0107,-0.0213,-0.0511,-3.5,-37.5,19.5,158.32,-82.16,-18.25,60255,2015-10-08 14:47:00:209,1
0.8236,9.0214,1.3599,0.4768,9.7132,1.2634,0.3468,-0.6919,0.0965,0.0533,-0.0085,-0.0724,-3.75,-37.75,19.75,156.12,-82.05,-18.36,60355,2015-10-08 14:47:00:309,1
0.6512,8.6574,1.8004,0.5238,9.7089,1.2777,0.1274,-1.0515,0.5228,0.0831,0.1555,-0.0575,-3.5,-36,19.75,155.69,-81.91,-21.5,60455,2015-10-08 14:47:00:409,1
1.5323,9.3278,0.8428,0.6916,9.714,1.1532,0.8407,-0.3862,-0.3105,0.2152,0.0213,0.0362,-4.5,-37.25,19.75,147.44,-82.11,-28.72,60555,2015-10-08 14:47:00:509,1
2.3942,8.983,1.0918,0.7686,9.7136,1.1075,1.6256,-0.7305,-0.0158,-0.0597,0.0192,-0.13,-4.25,-37.5,19.5,141.87,-82.35,-35.17,60655,2015-10-08 14:47:00:609,1
2.49,8.0828,1.1875,0.8026,9.6893,1.2821,2.0293,-1.608,0.2708,0.0149,0.115,0.0533,-5.75,-37.75,20.75,141.36,-81.13,-32.05,60755,2015-10-08 14:47:00:709,1
0.8428,8.7149,0.9577,1.0363,9.6932,1.0672,-0.1936,-0.9783,-0.1095,-0.4069,-0.2812,0.3707,-5.25,-37.25,20,132.91,-82.06,-43.29,60855,2015-10-08 14:47:00:809,1
-0.4788,9.4236,-0.1532,1.3114,9.6914,0.7267,-1.7903,-0.2678,-0.8799,0.179,-1.2442,0.4687,-4.75,-36,20.5,118.4,-81.21,-61.01,60955,2015-10-08 14:47:00:909,1
-1.5897,11.1666,1.4557,1.7903,9.6211,0.6329,-3.3176,1.3253,0.6557,-0.2706,-1.2378,0.6051,-4.25,-37.25,21.25,114.66,-79.58,-70.96,61055,2015-10-08 14:47:01:009,1
-2.3559,12.4307,3.3327,1.8164,9.5841,1.0077,-4.1723,2.8466,2.3251,-0.2386,-0.0469,0.0639,-5.75,-36,22.75,117.68,-78.18,-69.28,61155,2015-10-08 14:47:01:109,1
-1.6281,12.3158,3.6392,0.6048,9.7193,1.1573,-1.9455,2.0027,2.1754,1.0141,2.0879,-1.2655,-6,-34.75,22.5,126.48,-78.75,-51.89,61255,2015-10-08 14:47:01:209,1
-2.0877,10.4579,0.1915,-0.9888,9.7555,0.1505,-1.0989,0.7024,0.041,0.8927,1.9175,-1.3593,-5.75,-36.5,22,170.41,-85.36,4.44,61355,2015-10-08 14:47:01:309,1
-3.3902,9.1363,0.2107,-2.1899,9.5416,-0.5772,-1.4493,-0.8458,0.0983,0.7649,0.9396,-1.2868,-4.5,-34.75,23.25,253.13,-80.16,97.15,61455,2015-10-08 14:47:01:409,1
-0.8619,9.098,0.5363,-2.4625,9.4714,-0.6311,1.6006,-0.3735,1.1674,0.6732,0.1427,0.5646,-1.75,-35.25,24.75,258.68,-74.98,104.38,61555,2015-10-08 14:47:01:509,1
2.6815,7.9104,0.2682,-2.1013,9.5419,-0.8412,4.7828,-1.6314,1.1093,0.5475,-1.0077,0.8756,0.5,-37,25.25,273.52,-76.66,111.82,61655,2015-10-08 14:47:01:609,1
4.9608,5.861,-2.5857,-0.1332,9.7189,-1.3023,5.1834,-3.2606,0.1718,1.2293,-1.338,1.5702,0.75,-35.5,27.5,320.95,-83.16,144.5,61755,2015-10-08 14:47:01:709,1
4.8842,7.5082,-1.1492,1.6709,9.5692,-1.3452,2.6131,-2.3604,0.5413,-0.6775,-0.6008,0.7116,-1.75,-35,29,61.45,-77.36,-128.84,61855,2015-10-08 14:47:01:809,1
3.6392,7.2592,-0.5171,2.2722,9.5074,-0.7853,1.367,-2.2482,0.2682,0.571,0.0554,0.0788,-5,-34.25,31.5,71.62,-77.04,-117.05,61955,2015-10-08 14:47:01:909,1
4.0606,8.0828,-1.5323,2.4064,9.4743,-0.786,1.7499,-1.2957,-0.9187,-0.4069,0.2898,-0.326,-8.25,-33,30.75,74.08,-75.14,-110.92,62055,2015-10-08 14:47:02:009,1
3.7733,8.5808,0.6895,2.2279,9.5487,-0.1695,1.7513,-1.1343,0.425,-0.6328,0.4985,-0.4922,-10,-32.75,30,73.33,-75.46,-106.13,62155,2015-10-08 14:47:02:109,1
2.4325,8.983,0.3639,1.585,9.6613,0.5628,0.8475,-0.6783,-0.1989,-0.8416,0.6882,-0.7649,-9.25,-33.5,27.75,85.64,-77.63,-88.63,62255,2015-10-08 14:47:02:209,1
1.1875,8.3893,0.6321,0.9291,9.7045,1.0632,0.2585,-1.3152,-0.4312,-0.4815,0.1726,-0.5198,-7.75,-34.5,24.75,129.18,-81.72,-41.15,62355,2015-10-08 14:47:02:309,1
-0.6512,8.983,0.8045,0.3167,9.7115,1.3255,-0.968,-0.7285,-0.521,-0.6903,-0.0511,-0.49,-5.5,-37.25,22.25,158.39,-82.01,-13.44,62455,2015-10-08 14:47:02:409,1
-1.8387,8.8681,1.8196,-0.1264,9.6873,1.5198,-1.5101,-0.8208,0.1382,0.1534,-0.343,-0.2216,-2.75,-37.75,20.25,167.1,-80.85,-5.49,62555,2015-10-08 14:47:02:509,1
-2.9497,8.8681,1.4748,-0.3303,9.6725,1.5822,-2.4481,-0.6936,0.0287,-0.0298,-0.2344,0.1044,-0.75,-39.75,19.75,182.52,-80.97,8.96,62655,2015-10-08 14:47:02:609,1
-3.0646,10.477,0.7278,-0.2391,9.6787,1.5605,-2.819,0.7972,-0.8249,-0.1385,-0.3238,0.2727,0,-39.5,20,186.7,-80.74,8.71,62754,2015-10-08 14:47:02:708,1
-0.996,10.6494,-0.0192,-0.0065,9.7104,1.3703,-1.0057,0.9348,-1.3595,0.3686,-0.5113,0.343,0,-39,19.25,185.57,-80.56,7.42,62854,2015-10-08 14:47:02:808,1
-0.6512,9.845,2.1069,0.0981,9.6831,1.5485,-0.5765,0.2637,0.4836,-0.1449,-0.1704,0.098,-1.25,-37.75,20.5,175.01,-80.9,-3.62,62955,2015-10-08 14:47:02:909,1
-0.1149,9.596,1.743,0.134,9.6739,1.6028,-0.362,0.055,0.2428,-0.0533,-0.0362,0.0405,-1.75,-37.75,20.75,172.23,-80.83,-4.45,63054,2015-10-08 14:47:03:008,1
0.0766,8.983,1.4365,0.1061,9.6762,1.591,-0.0295,-0.6931,-0.1545,0.017,0.0554,0.0788,-1.75,-36.5,19.5,172.54,-80.64,-3.82,63155,2015-10-08 14:47:03:109,1
0.3639,8.8681,1.3982,0.0955,9.6874,1.5216,0.2684,-0.8193,-0.1234,0.1364,0.0937,-0.0277,-3,-37,19,170.23,-81.06,-3.59,63255,2015-10-08 14:47:03:209,1
0.3448,8.9447,1.3982,0.1459,9.6904,1.4982,0.1989,-0.7457,-0.1,0.2109,0.0192,0.0831,-2.75,-37.5,20,168.88,-81.17,-5.56,63355,2015-10-08 14:47:03:309,1
0.2682,9.0597,1.6281,0.2125,9.6865,1.5156,0.015,-0.6497,-0.0192,-0.1001,0.2493,-0.0107,-2.5,-38.5,19.5,169.32,-81.02,-7.98,63455,2015-10-08 14:47:03:409,1
0.2873,9.1937,1.5897,0.2608,9.6837,1.5257,0.0144,-0.4905,-0.0489,-0.0085,-0.0341,0.0639,-2.5,-37.75,19.25,168.99,-80.89,-8.44,63555,2015-10-08 14:47:03:509,1
0.5555,9.1171,1.5897,0.3278,9.6778,1.5502,0.1729,-0.5618,0.0998,0.0447,0.032,0.1513,-3,-37.25,19.25,165.33,-80.92,-9.94,63655,2015-10-08 14:47:03:609,1
0.7278,9.1554,1.6855,0.374,9.672,1.5757,0.3538,-0.5166,0.1098,0.1108,0.1278,0.2301,-4,-36.75,19,161.65,-80.56,-11.89,63754,2015-10-08 14:47:03:708,1
1.1492,9.2512,1.245,0.453,9.6869,1.4593,0.6962,-0.4931,-0.2718,0.1364,0.1129,0.0043,-4.25,-37.5,18.5,158.86,-80.87,-15.28,63855,2015-10-08 14:47:03:809,1
1.0343,8.9447,0.9194,0.4965,9.7008,1.3487,0.5378,-0.756,-0.4293,0.1683,0.0064,0.0234,-5.5,-37.5,18.5,153.16,-81.41,-19.15,63955,2015-10-08 14:47:03:909,1
1.245,9.0214,0.9768,0.5832,9.707,1.2665,0.6618,-0.6857,-0.2896,-0.0234,-0.1023,-0.0298,-6.25,-36.5,19,147.33,-81.77,-22.92,64055,2015-10-08 14:47:04:009,1
1.6855,9.0788,1.7621,0.6794,9.6943,1.3148,1.0061,-0.6155,0.4474,-0.1364,-0.0533,-0.0469,-6,-38,19,144.91,-81.47,-26.67,64155,2015-10-08 14:47:04:109,1
2.1835,8.6,1.494,0.6215,9.6941,1.3452,0.9491,-1.0366,-0.2343,0.0341,-0.1321,-0.3302,-4.75,-37.75,19.5,147.95,-81.05,-26.48,64255,2015-10-08 14:47:04:209,1
1.0151,8.2744,1.6472,0.5493,9.6696,1.539,0.304,-1.3119,0.1464,-0.3537,-0.049,-0.0234,-4.25,-36.25,19.25,152.85,-81.5,-22.2,64355,2015-10-08 14:47:04:309,1
0.3065,8.9447,-0.0958,0.6504,9.7004,1.2842,-0.4206,-0.7365,-1.2076,-0.1108,-0.5433,0.3004,-4.5,-37,19.5,152.73,-81.07,-23.11,64455,2015-10-08 14:47:04:409,1
0.1724,9.8258,0.4022,1.0562,9.6851,1.1196,-0.9604,-0.1466,-0.7173,0.3196,-0.669,0.5774,-3.5,-35.75,20.25,144.66,-81.03,-35.75,64555,2015-10-08 14:47:04:509,1
0.3639,10.5536,0.7278,1.6544,9.6369,0.7502,-1.2138,0.8976,0.0159,0.1555,-0.6413,0.62,-3.5,-35.5,20.75,124.53,-80.02,-60.71,64655,2015-10-08 14:47:04:609,1
-0.3639,10.6303,1.3408,1.9173,9.5919,0.7002,-2.2812,1.0384,0.6405,0.1129,-0.4708,0.2386,-5.75,-34.75,23.25,112.86,-77.99,-68.78,64756,2015-10-08 14:47:04:710,1
-0.7853,10.5536,1.3599,1.5096,9.6664,0.6728,-2.2949,0.8873,0.6871,-0.0234,0.5475,-0.3366,-6.25,-35,24.25,109.58,-79.28,-70.66,64855,2015-10-08 14:47:04:809,1
-1.0534,9.8641,0.747,1.0189,9.7295,0.6851,-2.0149,0.3836,0.4641,0.2727,1.012,-0.6626,-6.25,-34.25,24.5,118.64,-82.81,-56.08,64955,2015-10-08 14:47:04:909,1
-1.3216,10.5728,-0.2682,0.0684,9.7953,0.4668,-1.3709,0.3753,-0.2753,-0.1939,1.2272,-0.6967,-5,-35,24.25,161.14,-87.24,-8.34,65055,2015-10-08 14:47:05:009,1
-1.8962,11.0133,1.6664,-1.0291,9.7418,0.4562,-0.8671,1.2715,1.2101,0.1704,1.0013,-0.8799,-5,-35.25,23.75,216.61,-85.1,52.45,65155,2015-10-08 14:47:05:109,1
-3.9073,9.8067,-0.249,-2.0873,9.5789,-0.2413,-1.4872,-0.0407,0.0511,0.2983,0.6946,-0.8714,-2.5,-37,23.75,239.06,-81.76,81.35,65255,2015-10-08 14:47:05:209,1
1.1875,7.5848,-0.5938,-2.2212,9.5437,-0.3935,3.4088,-1.9588,-0.2002,0.5795,-0.1896,0.6392,0,-36.25,25.5,256.69,-75.57,96.52,65355,2015-10-08 14:47:05:309,1
4.0031,6.7038,-0.6512,-1.2583,9.7213,-0.2897,5.2615,-3.0175,-0.3616,0.5497,-1.3508,0.5305,1,-36.75,27.25,263.81,-80.19,95.22,65455,2015-10-08 14:47:05:409,1
4.6352,5.7078,-1.3599,-0.2221,9.7875,-0.5714,4.8573,-4.0797,-0.7885,-0.0128,-0.8224,1.5936,-1.5,-36.25,27.75,283.69,-83.53,112.22,65555,2015-10-08 14:47:05:509,1
3.9265,7.7764,-0.8236,1.3108,9.6953,-0.6738,2.6157,-1.9189,-0.1498,-1.0376,-0.13,1.0077,-3.5,-36,28.75,67.06,-81.36,-117.2,65655,2015-10-08 14:47:05:609,1
2.8922,7.4124,-1.1492,2.1372,9.5681,-0.2342,0.755,-2.1556,-0.915,0.3686,0.3132,0.2599,-5,-35,29,90.67,-78.13,-94.01,65755,2015-10-08 14:47:05:709,1
3.9073,8.6766,-1.245,2.4515,9.4927,-0.2205,1.4558,-0.8161,-1.0245,-0.4964,0.4091,0.032,-7.25,-34,28.75,87.56,-76.61,-96.67,65855,2015-10-08 14:47:05:809,1
4.2713,8.0254,1.4174,2.4385,9.4787,0.6146,1.8327,-1.4534,0.8027,-0.8693,0.767,-0.4155,-9.75,-33.25,27,100.82,-75.14,-75.85,65956,2015-10-08 14:47:05:910,1
3.5051,8.6574,-0.2298,2.0122,9.554,0.9174,1.4929,-0.8966,-1.1473,-0.5241,0.5944,-0.6988,-10.25,-35,23,108.36,-76.97,-65.49,66055,2015-10-08 14:47:06:009,1
1.245,9.5577,1.1684,1.3781,9.5829,1.5616,-0.1332,-0.0253,-0.3932,-0.1662,0.1001,-0.473,-7.5,-37,21.5,134.48,-77.74,-41.43,66155,2015-10-08 14:47:06:109,1
0.7661,9.4236,2.2984,0.876,9.6113,1.7396,-0.1099,-0.1877,0.5588,0.3856,-0.2919,-0.4197,-4.75,-38.5,19,149.37,-78.54,-26.73,66255,2015-10-08 14:47:06:209,1
0.1532,9.1554,2.624,0.5153,9.6868,1.4393,-0.3812,-0.2823,-0.1751,0.9907,-0.1981,-0.3899,-4,-39.25,18.25,155.41,-81.03,-19.7,66355,2015-10-08 14:47:06:309,1
-1.8196,8.9064,0.7661,0.0947,9.7448,1.0952,-1.9143,-0.8384,-0.329,0.0383,-0.017,-0.3174,-2,-37.25,20,171.12,-83.56,-4.94,66455,2015-10-08 14:47:06:409,1
-2.7964,9.3853,0.7661,-0.1774,9.7016,1.4208,-2.6191,-0.3163,-0.6547,-0.4261,-0.0213,-0.049,0,-37.25,21.25,184.23,-82.6,5.16,66555,2015-10-08 14:47:06:509,1
-2.1452,9.4236,1.0151,-0.1741,9.6778,1.5751,-1.9711,-0.2542,-0.5599,-0.1427,-0.1449,0.0277,0,-37,20.5,184.77,-80.86,6.04,66655,2015-10-08 14:47:06:609,1
-1.5323,9.6151,1.1492,-0.1447,9.6971,1.4545,-1.3492,0.1478,-0.5543,0.4815,-0.017,0.017,0,-37,19.25,183.63,-80.55,4.75,66755,2015-10-08 14:47:06:709,1
-0.1149,9.7492,0.9768,-0.0673,9.7083,1.3838,-0.3589,-0.1113,-0.1463,-0.0895,-0.0362,0.0767,-1,-37.5,19.75,179.94,-81.88,2.79,66855,2015-10-08 14:47:06:809,1
-0.1724,9.1746,1.7238,-0.0543,9.6971,1.4607,-0.1192,-0.5188,0.2388,0.0618,0.0895,-0.0213,-1.25,-36,20.5,179.52,-81.43,2.13,66955,2015-10-08 14:47:06:909,1
0.1341,9.2703,1.6472,-0.1117,9.6898,1.5051,0.2451,-0.4183,0.1345,-0.0767,0.2003,0.0128,-1,-36.5,20,181.09,-81.15,4.25,67055,2015-10-08 14:47:07:009,1
-0.0383,8.8107,1.3408,-0.164,9.6857,1.5269,0.1116,-0.8935,-0.113,-0.0724,0.1364,-0.1236,-1.75,-36.75,19.5,179.83,-81.14,5.49,67155,2015-10-08 14:47:07:109,1
0.1532,8.9064,1.6472,-0.0892,9.6703,1.6274,0.2559,-0.7632,0.0167,0.0852,0.1449,0.0128,-2.25,-37.25,20,177.35,-80.6,5.13,67255,2015-10-08 14:47:07:209,1
0.2873,9.2512,1.3216,-0.0607,9.6834,1.5485,0.348,-0.3748,-0.1694,0.0874,0.0447,-0.0533,-2.25,-38.5,19.25,177.11,-80.91,2.25,67355,2015-10-08 14:47:07:309,1
0.1532,9.3661,1.2833,0.0289,9.6931,1.4876,0.1243,-0.327,-0.2043,0.1321,-0.0554,0.0256,-2.25,-39.75,19,175.5,-81.11,0.11,67455,2015-10-08 14:47:07:409,1
0.6129,9.3278,1.4748,0.0501,9.6959,1.469,0.5437,-0.3489,0.0442,-0.0064,-0.1427,-0.0916,-1.5,-38,19,176.14,-81.38,-1.95,67555,2015-10-08 14:47:07:509,1
0.7278,9.2129,1.3982,0.0084,9.6908,1.5029,0.7961,-0.4588,-0.1046,-0.0426,-0.1619,-0.13,-1,-38.25,19.25,176.89,-81.32,-0.99,67654,2015-10-08 14:47:07:608,1
0.0192,8.7149,1.9537,-0.1024,9.6762,1.5907,0.0995,-0.9589,0.347,0.0426,-0.1065,-0.1555,-2,-38.5,19.5,177.51,-81.18,-0.32,67754,2015-10-08 14:47:07:708,1
0.6704,9.1746,1.7621,-0.1295,9.6613,1.6774,1.104,-0.43,0.1466,-0.032,-0.1385,-0.1513,-0.5,-37.25,19,183.28,-80.48,4.29,67855,2015-10-08 14:47:07:809,1
0.4405,8.4851,2.3942,-0.1351,9.6612,1.6776,0.6788,-1.1735,0.7601,0.3004,-0.1427,-0.0533,-0.75,-38,18.75,181.18,-80.12,4.58,67955,2015-10-08 14:47:07:909,1
-0.4788,8.6766,0.2298,-0.1646,9.7401,1.1283,-0.3142,-1.0636,-0.8984,0.3814,-0.5369,-0.081,0.25,-38.5,18.25,185.76,-82.35,7.32,68055,2015-10-08 14:47:08:009,1
-0.8811,9.1171,0.1341,-0.0627,9.7675,0.8731,-0.8184,-0.6504,-0.739,-0.1321,-0.7244,0.1768,1.5,-37.5,20,186.81,-83.32,8.3,68155,2015-10-08 14:47:08:109,1
-1.8962,9.5193,0.5746,0.2531,9.7624,0.8952,-2.1493,-0.2431,-0.3205,0.1001,-0.473,0.5113,1.25,-36.5,20.75,176.27,-84.49,-7.06,68255,2015-10-08 14:47:08:209,1
-1.0343,10.9176,1.0343,0.6527,9.7485,0.8429,-1.6869,1.169,0.1914,-0.0575,-0.5497,0.3132,0.5,-35.75,21.5,158.92,-84.41,-26.88,68355,2015-10-08 14:47:08:309,1
-2.9305,10.2089,1.2258,0.6219,9.7413,0.9433,-3.5524,0.4675,0.2826,-0.0021,0.1598,0.081,0.25,-35.75,22.5,147.92,-83.58,-37.26,68455,2015-10-08 14:47:08:409,1
-4.5203,11.8369,2.1069,0.129,9.7689,0.8499,-4.6243,2.0508,1.7627,-0.0149,0.8139,-0.098,-0.25,-36.75,23.25,151.4,-83.38,-33.4,68555,2015-10-08 14:47:08:509,1
-2.9497,11.722,2.1261,-0.7649,9.763,0.5189,-2.1847,1.959,1.6072,0.9055,1.7428,-1.044,0.25,-35.75,23.5,185.89,-84.54,6.74,68654,2015-10-08 14:47:08:608,1
-2.375,9.6343,0.3639,-2.6671,9.4368,-0.0636,0.2921,0.1975,0.4275,1.0312,0.522,-1.7193,0,-35,24.25,246.52,-79.99,79.81,68755,2015-10-08 14:47:08:709,1
1.2833,7.7572,-1.0918,-2.888,9.3692,-0.2196,5.129,-1.3438,-1.6575,0.3068,0.7989,0.4346,0.5,-36,24.75,250.3,-74.21,91.37,68855,2015-10-08 14:47:08:809,1
2.5474,6.7421,-1.6855,-2.3732,9.5134,-0.1822,5.6485,-3.346,-1.1585,-0.9268,0.0383,1.2251,4.5,-36,25.75,262.08,-73.6,94.2,68955,2015-10-08 14:47:08:909,1
5.1332,6.1675,-0.1915,-0.9228,9.7623,0.1278,6.0751,-3.8055,0.0063,0.6434,-0.7819,1.9729,5.25,-37,26.75,257.73,-80.99,79.13,69055,2015-10-08 14:47:09:009,1
4.616,7.2784,0.2873,1.2814,9.7216,-0.14,3.1751,-2.421,0.4133,0.0447,-0.5241,1.4765,4,-35.5,25.5,272.91,-88.81,85.8,69155,2015-10-08 14:47:09:109,1
3.486,7.6231,-0.8428,2.0262,9.5914,-0.2641,1.4864,-1.9739,-0.5799,-0.2067,0.326,0.2237,-2.75,-35,26.75,92.11,-77.97,-97.43,69255,2015-10-08 14:47:09:209,1
4.8459,8.8873,-0.6321,1.9063,9.6195,0.028,2.9396,-0.7323,-0.6601,-0.6839,0.4879,-1.0163,-6,-33.75,27.5,89.23,-77.87,-93.48,69355,2015-10-08 14:47:09:309,1
2.7198,8.8681,1.6472,0.9849,9.7231,0.8129,1.7349,-0.855,0.8343,-0.1981,0.6328,-1.2826,-6.25,-32,26.25,114.08,-81.18,-62.43,69455,2015-10-08 14:47:09:409,1
1.3982,8.7915,1.8579,-0.0785,9.7717,0.8239,1.4768,-0.9802,1.034,0.3643,0.5944,-1.1292,-3.75,-35.5,23.25,148.69,-84.93,-25.3,69555,2015-10-08 14:47:09:509,1
-0.996,8.849,-0.6512,-1.1676,9.7237,0.5062,0.2871,-0.7694,-0.0475,0.375,0.1811,-0.6306,0.5,-38,23.5,230.84,-83.17,56.67,69655,2015-10-08 14:47:09:609,1
-2.6624,8.4851,0.5555,-1.6567,9.6339,0.7835,-0.8391,-1.5413,0.3321,-0.0852,-0.0703,-0.1598,4.25,-37.5,24,242.26,-79.91,66.24,69755,2015-10-08 14:47:09:709,1
-2.4325,8.5234,1.1109,-1.6218,9.6014,1.1637,-0.9104,-0.9306,-0.0389,-0.7393,-0.2663,0.3025,7,-37.75,23.75,241.09,-78.63,59.79,69855,2015-10-08 14:47:09:809,1
-3.0646,8.8298,1.6281,-1.43,9.553,1.6928,-1.6346,-0.7232,-0.0647,-0.4197,-0.3388,0.1449,7.25,-37.75,22.25,223.55,-76.94,40.19,69955,2015-10-08 14:47:09:909,1
-3.3902,10.228,1.5514,-1.2203,9.5274,1.9774,-2.1699,0.7006,-0.426,-0.5923,-0.571,0.4432,6.25,-38.25,19.5,214.78,-76.29,31.68,70055,2015-10-08 14:47:10:009,1
-2.0686,10.0556,2.0111,-0.9182,9.5022,2.2439,-1.1504,0.5534,-0.2327,-0.066,-0.2642,0.3111,5.25,-37,17.5,206.93,-75.54,23.69,70155,2015-10-08 14:47:10:109,1
-1.6472,9.4619,2.1644,-0.857,9.5145,2.2157,-0.7902,-0.0527,-0.0514,0.0703,-0.1491,-0.032,3.75,-38,16,200.88,-75.77,21.52,70255,2015-10-08 14:47:10:209,1
-0.1915,8.8298,2.2218,-0.7741,9.5023,2.2973,0.5826,-0.6725,-0.0755,-0.1427,-0.179,0.0085,3.5,-39.25,16,202,-75.7,20.04,70355,2015-10-08 14:47:10:309,1
-0.4405,8.9256,2.7581,-0.6559,9.4765,2.4365,0.2154,-0.5509,0.3216,0.1811,-0.0724,0.2216,2.75,-39,16,197.77,-75.41,17.26,70457,2015-10-08 14:47:10:411,1
-0.3448,9.347,2.1644,-0.5648,9.4947,2.3879,0.2304,-0.1681,-0.1824,0.0128,0.0895,0.098,1.5,-39,16,193,-75.51,13.31,70555,2015-10-08 14:47:10:509,1
-0.3639,9.347,1.743,-0.573,9.5225,2.2723,0.2091,-0.2522,-0.5676,0.0447,0.0341,-0.0298,1.5,-38.25,15.5,193.76,-76,14.05,70655,2015-10-08 14:47:10:609,1
-0.2873,8.983,2.0111,-0.5905,9.523,2.2657,0.2457,-0.5592,-0.2737,0.1193,0.0128,-0.0959,1.25,-36.75,15.5,191.82,-76.07,14.46,70755,2015-10-08 14:47:10:709,1
-0.3256,8.9064,2.1644,-0.5722,9.531,2.2366,0.2772,-0.6424,-0.0561,-0.1023,-0.0575,0.1406,2.5,-37.75,16,196.8,-76.3,14.95,70855,2015-10-08 14:47:10:809,1
-0.5171,8.9064,2.1452,-0.5507,9.534,2.2293,0.2223,-0.6076,-0.0693,0.1108,0.0149,0.1108,1.25,-37.25,16.25,191.69,-76.4,14.12,70955,2015-10-08 14:47:10:909,1
-0.3639,9.0405,2.1644,-0.4763,9.5388,2.226,0.1506,-0.5557,0.1299,-0.1108,0.1172,-0.0597,2,-37.5,16,191.27,-76.53,13.6,71055,2015-10-08 14:47:11:009,1
0,9.0597,2.4325,-0.3345,9.5422,2.2373,0.2439,-0.4626,0.1413,0.0213,0.0447,0.0959,2,-38,15.25,192.15,-76.65,11.12,71155,2015-10-08 14:47:11:109,1
0.2682,9.0788,2.1835,-0.2958,9.5503,2.208,0.5405,-0.4334,-0.0047,0.017,-0.0575,0.0107,0.75,-38,15.5,187.8,-76.67,8.31,71255,2015-10-08 14:47:11:209,1
1.2833,9.1746,1.9345,-0.1671,9.5875,2.0551,1.4794,-0.3985,-0.1839,0.2812,-0.3622,-0.0618,1.25,-38.5,15.5,187.06,-76.95,7.09,71355,2015-10-08 14:47:11:309,1
1.1875,8.6383,2.8347,-0.0802,9.5692,2.1434,1.3553,-0.9904,0.5091,0.2003,-0.1641,-0.0618,2.5,-38,17,185.31,-78.02,4.28,71455,2015-10-08 14:47:11:409,1
0.3256,9.1363,0.996,-0.0118,9.6532,1.728,0.3172,-0.5303,-0.6555,0.7542,-0.4538,0.0213,2.25,-38.75,17,185.12,-79.85,0.39,71555,2015-10-08 14:47:11:509,1
-0.0192,8.8107,0.996,0.094,9.7403,1.1348,-0.1755,-0.8784,-0.0816,0.5752,-0.7073,0.1704,2.75,-36.75,20,183.15,-83.33,-4.74,71654,2015-10-08 14:47:11:608,1
-0.996,9.1554,0.4405,0.4359,9.7768,0.6286,-1.3551,-0.7374,-0.371,0.2578,-0.9566,0.3388,3,-35.75,22.5,163.62,-85.46,-25.75,71755,2015-10-08 14:47:11:709,1
-1.4748,10.0365,0.9768,0.8868,9.7479,0.6021,-2.3617,0.2886,0.3747,0.3068,-1.0397,0.473,3.5,-37.5,24.5,148.77,-84.57,-42.55,71855,2015-10-08 14:47:11:809,1
-1.4748,10.8601,1.5514,1.1704,9.7128,0.6804,-2.6453,1.1473,0.8711,-0.4218,-0.0064,0.392,5,-35.5,24.75,138.46,-82.06,-59.83,71955,2015-10-08 14:47:11:909,1
-2.7198,10.9942,0.1341,0.8291,9.7504,0.6417,-4.0661,1.1288,-0.2204,-0.049,0.5348,-0.2919,1.25,-35,24.25,138.23,-81.62,-56.1,72055,2015-10-08 14:47:12:009,1
-2.988,10.2472,2.2027,-0.0619,9.7604,0.9497,-2.8686,0.1995,1.8659,-0.1449,1.6171,-0.7201,0.25,-35,24.25,146.07,-84.83,-38.03,72155,2015-10-08 14:47:12:109,1
-2.6432,9.9024,2.4325,-1.0601,9.7134,0.835,-1.1426,0.4955,0.9271,-0.6775,2.4565,-0.6519,0.75,-35.5,24,226.09,-82.09,51.77,72255,2015-10-08 14:47:12:209,1
-2.873,10.1131,1.1875,-1.8643,9.5915,0.8357,-0.1276,1.1537,1.4819,0.8266,0.931,-0.7372,0.5,-35.75,23.5,226.92,-78.74,56.46,72355,2015-10-08 14:47:12:309,1
-1.2067,7.4699,2.3942,-2.0962,9.5672,0.4946,0.853,-2.1062,1.918,0.5113,-0.245,0.5007,1.75,-36,23,243.96,-77.31,76.72,72455,2015-10-08 14:47:12:409,1
1.4557,8.8107,3.1795,-0.9977,9.7285,0.7284,2.9705,-1.186,1.321,0.8607,-0.3089,0.6136,1.5,-37.25,23.25,245.34,-80.31,74.43,72555,2015-10-08 14:47:12:509,1
4.8459,7.0294,0.3448,-0.3092,9.779,0.6677,5.1551,-2.7496,-0.323,0.343,-0.8522,0.522,-0.25,-37.75,23.75,214.92,-84.58,39.72,72655,2015-10-08 14:47:12:609,1
6.7995,6.0908,2.2218,1.4199,9.683,0.6276,5.7028,-1.43,1.4869,1.2208,-1.0504,0.7222,-2,-38.5,23.25,173.99,-86.4,-1.65,72755,2015-10-08 14:47:12:709,1
2.5283,7.1635,0.5938,2.0029,9.5913,0.4078,0.5254,-2.4278,0.1859,-1.0205,0.5049,0.3196,-5.5,-36.75,23.5,118.79,-80.89,-66.15,72855,2015-10-08 14:47:12:809,1
3.735,8.2935,0.8045,2.298,9.5153,0.5901,1.4369,-1.2218,0.2143,-0.2684,0.0383,0.0149,-7,-33.75,25.75,104.94,-76.84,-76.16,72955,2015-10-08 14:47:12:909,1
4.367,8.4467,0.8428,2.0406,9.5477,0.9211,2.3264,-1.1009,-0.0783,-0.1811,0.4964,-0.6711,-7.5,-34.25,25.25,104.89,-76,-75.6,73055,2015-10-08 14:47:13:009,1
2.7581,8.4851,1.3408,1.385,9.5547,1.7203,1.3731,-1.0697,-0.3796,-0.5667,1.0397,-0.8437,-8,-36,23,128.28,-76.95,-47.24,73155,2015-10-08 14:47:13:109,1
0.3831,8.3318,2.7581,0.5063,9.4766,2.4714,-0.1232,-1.1448,0.2867,-0.3515,0.3728,-0.6456,-7.25,-37.25,21.75,142.68,-76.86,-29.29,73254,2015-10-08 14:47:13:208,1
-0.6704,8.6574,2.1644,0.0039,9.4185,2.7316,-0.6743,-0.7611,-0.5673,-0.4261,0.2024,-0.2621,-4.75,-38.75,18.25,161.79,-74.53,-6.93,73354,2015-10-08 14:47:13:308,1
-1.7047,9.0597,2.5666,-0.2019,9.4186,2.724,-1.5602,-0.1291,-0.9427,0.4708,-0.1406,-0.1811,-3,-39.25,15.75,175.5,-72.83,3.13,73454,2015-10-08 14:47:13:408,1
-1.743,8.5617,1.7621,-0.2196,9.5059,2.4,-1.2361,-0.6378,-1.0784,-0.3174,-0.6562,0.066,-0.25,-39,14,182.74,-74.97,4.63,73554,2015-10-08 14:47:13:508,1
-3.1603,8.7915,1.8771,-0.2145,9.4603,2.5743,-2.5628,-0.8795,-0.5823,0.0469,-0.9438,-0.1108,-1,-39.25,15,180.63,-75.32,4.85,73654,2015-10-08 14:47:13:608,1
-2.5283,10.3238,2.3367,-0.0652,9.4294,2.6929,-2.5497,0.9277,-0.6543,0.3345,-0.3324,0.3686,-0.25,-38.25,16.25,180.8,-74.42,4.85,73754,2015-10-08 14:47:13:708,1
-0.7853,10.4004,1.8004,0.1862,9.5081,2.3942,-0.914,0.9115,-0.4788,0.0256,-0.0362,0.2429,-0.25,-37.5,16.25,177.75,-75.71,-3.46,73855,2015-10-08 14:47:13:809,1
-0.2107,9.3278,2.5474,0.2136,9.5061,2.3999,-0.4818,-0.1016,0.0135,-0.2429,0.3153,0.1087,-1,-38.75,16.75,174.47,-76.34,-5,73955,2015-10-08 14:47:13:909,1
0.3639,9.1554,2.5283,0.1971,9.5167,2.359,-0.0631,-0.1505,0.0352,-0.0362,0.179,0.049,-1.75,-38,16.5,172.27,-76.19,-4.89,74055,2015-10-08 14:47:14:009,1
0.249,8.9639,2.2793,0.1773,9.5098,2.3879,-0.0432,-0.5651,-0.1086,-0.0767,0.0831,0.0277,-2.25,-37.5,16.25,172.48,-75.97,-4.36,74155,2015-10-08 14:47:14:109,1
0.2107,8.8681,2.3367,0.1546,9.5145,2.3707,0.0561,-0.6464,-0.034,-0.0362,0.0639,0.0021,-3.25,-37.5,15.5,172.89,-75.88,-4.03,74255,2015-10-08 14:47:14:209,1
0.3639,9.0597,2.0111,0.2123,9.5384,2.2682,0.1517,-0.4787,-0.2571,0.1747,0.0788,0.0149,-4,-38.25,16.25,167.13,-76.57,-5.35,74355,2015-10-08 14:47:14:309,1
0.5363,8.8681,1.8387,0.2009,9.5638,2.1598,0.4077,-0.5984,-0.2694,-0.0298,0.0511,-0.0703,-4.25,-38.75,16.5,167.08,-77.17,-5.74,74455,2015-10-08 14:47:14:409,1
0.4788,8.9064,1.9728,0.2298,9.5644,2.1538,0.2658,-0.7002,-0.2823,-0.0064,-0.0192,0.1683,-3.5,-38,17.25,167.29,-77.14,-5.29,74555,2015-10-08 14:47:14:509,1
0.6512,9.1554,1.9537,0.2991,9.5709,2.1161,0.3977,-0.4329,-0.1522,0.0895,0.0554,0.0575,-2.25,-36.25,16.75,168.54,-77.32,-6.55,74655,2015-10-08 14:47:14:609,1
0.8619,9.232,1.7238,0.329,9.5882,2.0318,0.5798,-0.4368,-0.3641,0.0937,-0.1023,-0.1214,-2.75,-35.75,17.25,167.07,-77.42,-8.46,74755,2015-10-08 14:47:14:709,1
1.2258,9.098,1.8962,0.3686,9.6043,1.9472,0.8572,-0.5063,-0.051,0.1662,-0.098,-0.0682,-3.75,-36,17.75,166.39,-78.06,-9.54,74855,2015-10-08 14:47:14:809,1
1.7621,9.1554,2.1069,0.449,9.6361,1.7648,1.3131,-0.4998,0.4762,0.0533,0.1534,-0.0511,-2.75,-37,18.75,162.04,-78.91,-12.15,74955,2015-10-08 14:47:14:909,1
1.7047,9.4427,1.5323,0.4358,9.6722,1.5584,1.2688,-0.2295,-0.0261,0.3622,-0.0192,-0.0426,-2,-36.75,19.75,162.13,-79.39,-14.86,75054,2015-10-08 14:47:15:008,1
0.2107,8.849,0.2873,0.2462,9.7492,1.0308,-0.0355,-0.9003,-0.7434,-0.3558,-0.5667,-0.2919,-1.5,-36.5,20,162.37,-83.81,-18.03,75155,2015-10-08 14:47:15:109,1
-0.8619,8.4467,0.9194,0.12,9.7475,1.069,-0.6225,-1.2409,0.1002,0.0874,-0.8096,-0.228,0,-36,21.5,169,-83.38,-10.42,75255,2015-10-08 14:47:15:209,1
-1.0534,8.7915,0.6704,0.1338,9.7725,0.8063,-1.1872,-0.981,-0.1359,0.5369,-1.1164,0.2045,1,-35.75,22.25,176.61,-84.5,-6.51,75354,2015-10-08 14:47:15:308,1
-1.8196,9.0788,1.1109,0.2815,9.7781,0.6924,-2.1011,-0.6993,0.4185,-0.2216,-0.9651,0.228,3,-33.75,24,170.95,-85.97,-14.96,75455,2015-10-08 14:47:15:409,1
-3.2944,10.3238,1.0534,0.4606,9.7635,0.7947,-3.755,0.5603,0.2587,-0.3537,-0.4325,0.4645,4.75,-33.75,24.5,160.97,-85.18,-32.37,75555,2015-10-08 14:47:15:509,1
-3.2944,10.9559,2.5857,0.3287,9.7182,1.272,-3.6231,1.2376,1.3137,-0.1555,0.7563,0.196,5,-34.25,24.25,173.47,-82.7,-19.4,75655,2015-10-08 14:47:15:609,1
-2.9497,11.0708,2.0494,-0.1502,9.7308,1.2081,-2.7994,1.34,0.8413,0.4197,1.9303,0.1875,4,-34.5,22.75,183.16,-82.25,-7.61,75755,2015-10-08 14:47:15:709,1
-1.8004,11.9135,1.1875,-0.9235,9.7383,0.6955,-0.8769,2.1753,0.4921,0.0511,0.9843,-0.7649,1,-36.25,22.75,197.44,-83.32,12.92,75855,2015-10-08 14:47:15:809,1
-2.6049,11.1666,1.3599,-1.9163,9.61,0.3816,-0.7771,1.4832,0.96,0.7308,0.3558,-1.2741,-0.5,-34.25,23.75,232.74,-81.94,62.3,75955,2015-10-08 14:47:15:909,1
-0.3065,10.6877,0.4214,-2.5651,9.4652,0.0215,2.488,0.9212,0.733,-0.1513,-0.1875,-0.6264,1.5,-34.25,24.75,246.94,-77.13,84.19,76055,2015-10-08 14:47:16:009,1
2.6049,6.8187,-0.5555,-2.3232,9.5261,-0.1618,4.295,-2.186,-0.2344,0.2258,-0.9204,0.9822,4.25,-34.25,25.5,262,-74.96,93.06,76156,2015-10-08 14:47:16:110,1
3.6583,4.8459,1.1492,-1.0467,9.7453,-0.3221,4.7036,-4.8228,1.4584,1.0504,-1.24,1.5255,6.5,-35,27.5,274.36,-80.19,92.45,76255,2015-10-08 14:47:16:209,1
3.7924,7.0868,-0.9385,0.8032,9.7166,-1.055,2.6636,-2.4957,0.2888,0.1193,-0.424,1.2996,6,-34.25,29.25,25.43,-84.05,-169.31,76355,2015-10-08 14:47:16:309,1
1.245,7.4891,-1.4748,1.3547,9.6679,-0.9314,-0.1097,-2.1788,-0.5434,0.032,0.0916,0.5049,1,-32.5,31.75,63.5,-80.83,-126.87,76455,2015-10-08 14:47:16:409,1
3.5817,9.4619,-1.3982,1.7596,9.615,-0.7917,1.8221,-0.1531,-0.6065,-0.0959,0.2301,0.1981,-1,-32.25,31.75,67.33,-79.7,-121.14,76555,2015-10-08 14:47:16:509,1
2.8347,8.5617,-0.6704,1.5958,9.6571,-0.6042,1.2772,-1.2486,-0.1811,0.0383,0.4368,-0.5475,-2.5,-32.5,31,75.94,-79.98,-110.74,76655,2015-10-08 14:47:16:609,1
2.6815,8.4084,0.249,1.1977,9.7325,-0.1189,1.4838,-1.3241,0.3679,-0.2557,0.6519,-0.8266,-3.75,-32.5,30.25,84.25,-82.95,-95.67,76755,2015-10-08 14:47:16:709,1
1.4748,8.2361,0.3065,0.5929,9.7831,0.3301,0.8819,-1.5471,-0.0237,-0.343,0.6264,-0.7201,-2.5,-33.75,27.75,119.17,-86.03,-60.89,76855,2015-10-08 14:47:16:809,1
0.9194,8.9447,0.5363,-0.0218,9.783,0.6804,0.9412,-0.8383,-0.1441,-0.1854,0.2834,-0.669,-1.75,-34.5,26.75,150.74,-86.2,-27.3,76955,2015-10-08 14:47:16:909,1
-1.5706,9.2129,0.5363,-0.5654,9.7446,0.9455,-1.5614,-0.8326,-0.4375,-0.2344,0.3132,-0.5412,2,-35.5,23.5,210.98,-83.55,30.88,77055,2015-10-08 14:47:17:009,1
-2.739,8.9256,0.2873,-1.0054,9.6665,1.3111,-1.7088,-0.6883,-0.7571,-1.0887,0.147,0.1236,2.25,-36.5,23.25,216.91,-81.46,39.66,77155,2015-10-08 14:47:17:109,1
-2.4708,10.4196,0.2682,-0.9071,9.5635,1.9713,-1.3747,0.8699,-1.5545,-0.6285,-0.1491,0.0533,3.5,-35.5,21.75,209.83,-77.72,28.53,77255,2015-10-08 14:47:17:209,1
